<?xml version="1.0" encoding="UTF-8"?>
<ODM xmlns="http://www.cdisc.org/ns/odm/v1.3"
     xmlns:def="http://www.cdisc.org/ns/def/v2.1"
     xmlns:xlink="http://www.w3.org/1999/xlink"
     CreationDateTime="2023-03-11T09:24:09+01:00"
     Description=""
     FileOID="Template"
     FileType="Snapshot"
     Granularity="Metadata"
     ODMVersion="1.3.2"
     def:Context="Submission">
   <Study OID="CM4620-203">
      <GlobalVariables>
         <StudyName>CM4620-203</StudyName>
         <StudyDescription>A Randomized, Double-Blind, Placebo Controlled Dose-Ranging Study of Auxora in Patients with Acute Pancreatitis and Accompanying Systemic Inflammatory Response Syndrome (CARPO)</StudyDescription>
         <ProtocolName>CM4620-203</ProtocolName>
      </GlobalVariables>
      <MetaDataVersion Description="Study CM4620-203, Data Definitions"
                       Name="CDISC.SDTM.3.3"
                       OID="CDISC.SDTM.3.3"
                       def:DefineVersion="2.1.0">
         <def:Standards>
            <def:Standard Name="CDISC/NCI"
                          OID="STD.CT.SDTM.2022-03-25"
                          PublishingSet="SDTM"
                          Status="Final"
                          Type="CT"
                          Version="2022-03-25"/>
            <def:Standard Name="SDTMIG"
                          OID="STD.SDTMIG-3.3"
                          Status="Final"
                          Type="IG"
                          Version="3.3"/>
         </def:Standards>
         <ItemGroupDef Domain="AE"
                       IsReferenceData="No"
                       Name="AE"
                       OID="CM4620-203:AE"
                       Purpose="Tabulation"
                       Repeating="Yes"
                       SASDatasetName="AE"
                       def:ArchiveLocationID="Location.CM4620-203.AE"
                       def:StandardOID="STD.SDTMIG-3.3"
                       def:Structure="One record per AE.AETERM per USUBJID">
            <Description>
               <TranslatedText xml:lang="en">Adverse Events</TranslatedText>
            </Description>
            <ItemRef ItemOID="STUDYID"
                     KeySequence="1"
                     Mandatory="Yes"
                     MethodOID="IMP.CM4620-203:AE.60.STUDYID"
                     OrderNumber="1"
                     Role="Identifier"/>
            <ItemRef ItemOID="DOMAIN"
                     Mandatory="Yes"
                     MethodOID="IMP.CM4620-203:AE.60.DOMAIN"
                     OrderNumber="2"
                     Role="Identifier"/>
            <ItemRef ItemOID="USUBJID"
                     KeySequence="2"
                     Mandatory="Yes"
                     MethodOID="IMP.CM4620-203:AE.60.USUBJID"
                     OrderNumber="3"
                     Role="Identifier"/>
            <ItemRef ItemOID="AE.AESEQ"
                     Mandatory="Yes"
                     MethodOID="IMP.CM4620-203:AE.60.AE.AESEQ"
                     OrderNumber="4"
                     Role="Identifier"/>
            <ItemRef ItemOID="AE.AEGRPID"
                     Mandatory="No"
                     OrderNumber="5"
                     Role="Identifier"/>
            <ItemRef ItemOID="AE.AEREFID"
                     Mandatory="No"
                     OrderNumber="6"
                     Role="Identifier"/>
            <ItemRef ItemOID="AE.AESPID"
                     Mandatory="No"
                     MethodOID="IMP.CM4620-203:AE.60.AE.AESPID"
                     OrderNumber="7"
                     Role="Identifier"/>
            <ItemRef ItemOID="AE.AETERM"
                     KeySequence="4"
                     Mandatory="Yes"
                     MethodOID="IMP.CM4620-203:AE.60.AE.AETERM"
                     OrderNumber="8"
                     Role="Topic"/>
            <ItemRef ItemOID="AE.AEMODIFY"
                     Mandatory="No"
                     OrderNumber="9"
                     Role="Synonym Qualifier"/>
            <ItemRef ItemOID="AE.AELLT"
                     Mandatory="No"
                     MethodOID="IMP.CM4620-203:AE.60.AE.AELLT"
                     OrderNumber="10"
                     Role="Variable Qualifier"/>
            <ItemRef ItemOID="AE.AELLTCD"
                     Mandatory="No"
                     MethodOID="IMP.CM4620-203:AE.60.AE.AELLTCD"
                     OrderNumber="11"
                     Role="Variable Qualifier"/>
            <ItemRef ItemOID="AE.AEDECOD"
                     KeySequence="5"
                     Mandatory="Yes"
                     MethodOID="IMP.CM4620-203:AE.60.AE.AEDECOD"
                     OrderNumber="12"
                     Role="Synonym Qualifier"/>
            <ItemRef ItemOID="AE.AEPTCD"
                     Mandatory="No"
                     MethodOID="IMP.CM4620-203:AE.60.AE.AEPTCD"
                     OrderNumber="13"
                     Role="Variable Qualifier"/>
            <ItemRef ItemOID="AE.AEHLT"
                     Mandatory="No"
                     MethodOID="IMP.CM4620-203:AE.60.AE.AEHLT"
                     OrderNumber="14"
                     Role="Variable Qualifier"/>
            <ItemRef ItemOID="AE.AEHLTCD"
                     Mandatory="No"
                     MethodOID="IMP.CM4620-203:AE.60.AE.AEHLTCD"
                     OrderNumber="15"
                     Role="Variable Qualifier"/>
            <ItemRef ItemOID="AE.AEHLGT"
                     Mandatory="No"
                     MethodOID="IMP.CM4620-203:AE.60.AE.AEHLGT"
                     OrderNumber="16"
                     Role="Variable Qualifier"/>
            <ItemRef ItemOID="AE.AEHLGTCD"
                     Mandatory="No"
                     MethodOID="IMP.CM4620-203:AE.60.AE.AEHLGTCD"
                     OrderNumber="17"
                     Role="Variable Qualifier"/>
            <ItemRef ItemOID="AE.AECAT"
                     Mandatory="No"
                     MethodOID="IMP.CM4620-203:AE.60.AE.AECAT"
                     OrderNumber="18"
                     Role="Grouping Qualifier"/>
            <ItemRef ItemOID="AE.AESCAT"
                     Mandatory="No"
                     OrderNumber="19"
                     Role="Grouping Qualifier"/>
            <ItemRef ItemOID="AE.AEPRESP"
                     Mandatory="No"
                     OrderNumber="20"
                     Role="Variable Qualifier"/>
            <ItemRef ItemOID="AE.AEBODSYS"
                     Mandatory="No"
                     MethodOID="IMP.CM4620-203:AE.60.AE.AEBODSYS"
                     OrderNumber="21"
                     Role="Record Qualifier"/>
            <ItemRef ItemOID="AE.AEBDSYCD"
                     Mandatory="No"
                     MethodOID="IMP.CM4620-203:AE.60.AE.AEBDSYCD"
                     OrderNumber="22"
                     Role="Variable Qualifier"/>
            <ItemRef ItemOID="AE.AESOC"
                     Mandatory="No"
                     MethodOID="IMP.CM4620-203:AE.60.AE.AESOC"
                     OrderNumber="23"
                     Role="Variable Qualifier"/>
            <ItemRef ItemOID="AE.AESOCCD"
                     Mandatory="No"
                     MethodOID="IMP.CM4620-203:AE.60.AE.AESOCCD"
                     OrderNumber="24"
                     Role="Variable Qualifier"/>
            <ItemRef ItemOID="AE.AELOC"
                     Mandatory="No"
                     OrderNumber="25"
                     Role="Record Qualifier"/>
            <ItemRef ItemOID="AE.AESEV"
                     Mandatory="No"
                     MethodOID="IMP.CM4620-203:AE.60.AE.AESEV"
                     OrderNumber="26"
                     Role="Record Qualifier"/>
            <ItemRef ItemOID="AE.AESER"
                     Mandatory="No"
                     MethodOID="IMP.CM4620-203:AE.60.AE.AESER"
                     OrderNumber="27"
                     Role="Record Qualifier"/>
            <ItemRef ItemOID="AE.AEACN"
                     Mandatory="No"
                     MethodOID="IMP.CM4620-203:AE.60.AE.AEACN"
                     OrderNumber="28"
                     Role="Record Qualifier"/>
            <ItemRef ItemOID="AE.AEACNOTH"
                     Mandatory="No"
                     OrderNumber="29"
                     Role="Record Qualifier"/>
            <ItemRef ItemOID="AE.AEREL"
                     Mandatory="No"
                     MethodOID="IMP.CM4620-203:AE.60.AE.AEREL"
                     OrderNumber="30"
                     Role="Record Qualifier"/>
            <ItemRef ItemOID="AE.AERELNST"
                     Mandatory="No"
                     OrderNumber="31"
                     Role="Record Qualifier"/>
            <ItemRef ItemOID="AE.AEPATT"
                     Mandatory="No"
                     OrderNumber="32"
                     Role="Record Qualifier"/>
            <ItemRef ItemOID="AE.AEOUT"
                     Mandatory="No"
                     MethodOID="IMP.CM4620-203:AE.60.AE.AEOUT"
                     OrderNumber="33"
                     Role="Record Qualifier"/>
            <ItemRef ItemOID="AE.AESCAN"
                     Mandatory="No"
                     OrderNumber="34"
                     Role="Record Qualifier"/>
            <ItemRef ItemOID="AE.AESCONG"
                     Mandatory="No"
                     MethodOID="IMP.CM4620-203:AE.60.AE.AESCONG"
                     OrderNumber="35"
                     Role="Record Qualifier"/>
            <ItemRef ItemOID="AE.AESDISAB"
                     Mandatory="No"
                     MethodOID="IMP.CM4620-203:AE.60.AE.AESDISAB"
                     OrderNumber="36"
                     Role="Record Qualifier"/>
            <ItemRef ItemOID="AE.AESDTH"
                     Mandatory="No"
                     MethodOID="IMP.CM4620-203:AE.60.AE.AESDTH"
                     OrderNumber="37"
                     Role="Record Qualifier"/>
            <ItemRef ItemOID="AE.AESHOSP"
                     Mandatory="No"
                     MethodOID="IMP.CM4620-203:AE.60.AE.AESHOSP"
                     OrderNumber="38"
                     Role="Record Qualifier"/>
            <ItemRef ItemOID="AE.AESLIFE"
                     Mandatory="No"
                     MethodOID="IMP.CM4620-203:AE.60.AE.AESLIFE"
                     OrderNumber="39"
                     Role="Record Qualifier"/>
            <ItemRef ItemOID="AE.AESOD"
                     Mandatory="No"
                     OrderNumber="40"
                     Role="Record Qualifier"/>
            <ItemRef ItemOID="AE.AESMIE"
                     Mandatory="No"
                     MethodOID="IMP.CM4620-203:AE.60.AE.AESMIE"
                     OrderNumber="41"
                     Role="Record Qualifier"/>
            <ItemRef ItemOID="AE.AECONTRT"
                     Mandatory="No"
                     OrderNumber="42"
                     Role="Record Qualifier"/>
            <ItemRef ItemOID="AE.AETOXGR"
                     Mandatory="No"
                     MethodOID="IMP.CM4620-203:AE.60.AE.AETOXGR"
                     OrderNumber="43"
                     Role="Record Qualifier"/>
            <ItemRef ItemOID="AE.TAETORD"
                     Mandatory="No"
                     OrderNumber="44"
                     Role="Timing"/>
            <ItemRef ItemOID="AE.EPOCH"
                     Mandatory="No"
                     MethodOID="IMP.CM4620-203:AE.60.AE.EPOCH"
                     OrderNumber="45"
                     Role="Timing"/>
            <ItemRef ItemOID="AE.AESTDTC"
                     KeySequence="3"
                     Mandatory="No"
                     MethodOID="IMP.CM4620-203:AE.60.AE.AESTDTC"
                     OrderNumber="46"
                     Role="Timing"/>
            <ItemRef ItemOID="AE.AEENDTC"
                     KeySequence="6"
                     Mandatory="No"
                     MethodOID="IMP.CM4620-203:AE.60.AE.AEENDTC"
                     OrderNumber="47"
                     Role="Timing"/>
            <ItemRef ItemOID="AE.AESTDY"
                     Mandatory="No"
                     MethodOID="IMP.CM4620-203:AE.60.AE.AESTDY"
                     OrderNumber="48"
                     Role="Timing"/>
            <ItemRef ItemOID="AE.AEENDY"
                     Mandatory="No"
                     MethodOID="IMP.CM4620-203:AE.60.AE.AEENDY"
                     OrderNumber="49"
                     Role="Timing"/>
            <ItemRef ItemOID="AE.AEDUR"
                     Mandatory="No"
                     OrderNumber="50"
                     Role="Timing"
               def:HasNoData="Yes"/>
            <ItemRef ItemOID="AE.AEENRF"
                     Mandatory="No"
                     OrderNumber="51"
                     Role="Timing"/>
            <ItemRef ItemOID="AE.AEENRTPT"
                     Mandatory="No"
                     OrderNumber="52"
                     Role="Timing"/>
            <ItemRef ItemOID="AE.AEENTPT"
                     Mandatory="No"
                     OrderNumber="53"
                     Role="Timing"/>
            <def:Class Name="EVENTS"/>
            <def:leaf ID="Location.CM4620-203.AE"
                      xlink:href="S:\CAL\CDISC\Software\analysis\test\203\DATA\AE.xpt">
               <def:title>S:\CAL\CDISC\Software\analysis\test\203\DATA\AE.xpt</def:title>
            </def:leaf>
         </ItemGroupDef>
         <ItemGroupDef Domain="PP"
                       IsNonStandard="Yes"
                       IsReferenceData="No"
                       Name="PP"
                       OID="CM4620-203:EG"
                       Purpose="Tabulation"
                       Repeating="Yes"
                       SASDatasetName="VS"
                       def:ArchiveLocationID="Location.CM4620-203.EG"
                       def:StandardOID="STD.SDTMIG-3.3"
                       def:Structure="One record per thing">
            <Description>
               <TranslatedText xml:lang="en">Cool PP domain</TranslatedText>
            </Description>
            <ItemRef ItemOID="STUDYID"
                     KeySequence="1"
                     Mandatory="Yes"
                     MethodOID="IMP.CM4620-203:EG.61.STUDYID"
                     OrderNumber="1"
                     Role="Identifier"/>
            <ItemRef ItemOID="DOMAIN"
                     Mandatory="Yes"
                     MethodOID="IMP.CM4620-203:EG.61.DOMAIN"
                     OrderNumber="2"
                     Role="Identifier"/>
            <ItemRef ItemOID="USUBJID"
                     KeySequence="2"
                     Mandatory="Yes"
                     MethodOID="IMP.CM4620-203:EG.61.USUBJID"
                     OrderNumber="3"
                     Role="Identifier"/>
            <ItemRef ItemOID="PP.PPORRESU"
                     KeySequence="2"
                     Mandatory="Yes"
                     MethodOID="IMP.CM4620-203:EG.61.USUBJID"
                     OrderNumber="3"
                     Role="Identifier"/>
            <def:Class Name="FINDINGS"/>
            <def:leaf ID="Location.CM4620-203.EG"
                      xlink:href="S:\CAL\CDISC\Software\analysis\test\203\DATA\EG.xpt">
               <def:title>S:\CAL\CDISC\Software\analysis\test\203\DATA\VS.xpt</def:title>
            </def:leaf>
         </ItemGroupDef>
         <ItemGroupDef Domain="EG"
                       IsReferenceData="No"
                       Name="EG"
                       OID="CM4620-203:EG"
                       Purpose="Tabulation"
                       Repeating="Yes"
                       SASDatasetName="EG"
                       def:ArchiveLocationID="Location.CM4620-203.EG"
                       def:StandardOID="STD.SDTMIG-3.3"
                       def:Structure="One record per EG.EGTESTCD per USUBJID">
            <Description>
               <TranslatedText xml:lang="en">ECG Test Results</TranslatedText>
            </Description>
            <ItemRef ItemOID="STUDYID"
                     KeySequence="1"
                     Mandatory="Yes"
                     MethodOID="IMP.CM4620-203:EG.61.STUDYID"
                     OrderNumber="1"
                     Role="Identifier"/>
            <ItemRef ItemOID="DOMAIN"
                     Mandatory="Yes"
                     MethodOID="IMP.CM4620-203:EG.61.DOMAIN"
                     OrderNumber="2"
                     Role="Identifier"/>
            <ItemRef ItemOID="USUBJID"
                     KeySequence="2"
                     Mandatory="Yes"
                     MethodOID="IMP.CM4620-203:EG.61.USUBJID"
                     OrderNumber="3"
                     Role="Identifier"/>
            <ItemRef ItemOID="EG.SPDEVID"
                     Mandatory="No"
                     OrderNumber="4"
                     Role="Identifier"/>
            <ItemRef ItemOID="EG.EGSEQ"
                     Mandatory="Yes"
                     MethodOID="IMP.CM4620-203:EG.61.EG.EGSEQ"
                     OrderNumber="5"
                     Role="Identifier"/>
            <ItemRef ItemOID="EG.EGGRPID"
                     Mandatory="No"
                     OrderNumber="6"
                     Role="Identifier"/>
            <ItemRef ItemOID="EG.EGREFID"
                     Mandatory="No"
                     OrderNumber="7"
                     Role="Identifier"/>
            <ItemRef ItemOID="EG.EGSPID"
                     Mandatory="No"
                     OrderNumber="8"
                     Role="Identifier"/>
            <ItemRef ItemOID="EG.EGTESTCD"
                     KeySequence="3"
                     Mandatory="Yes"
                     MethodOID="IMP.CM4620-203:EG.61.EG.EGTESTCD"
                     OrderNumber="9"
                     Role="Topic"/>
            <ItemRef ItemOID="EG.EGTEST"
                     Mandatory="Yes"
                     MethodOID="IMP.CM4620-203:EG.61.EG.EGTEST"
                     OrderNumber="10"
                     Role="Synonym Qualifier"/>
            <ItemRef ItemOID="EG.EGCAT"
                     Mandatory="No"
                     MethodOID="IMP.CM4620-203:EG.61.EG.EGCAT"
                     OrderNumber="11"
                     Role="Grouping Qualifier"/>
            <ItemRef ItemOID="EG.EGSCAT"
                     Mandatory="No"
                     OrderNumber="12"
                     Role="Grouping Qualifier"/>
            <ItemRef ItemOID="EG.EGPOS"
                     Mandatory="No"
                     OrderNumber="13"
                     Role="Record Qualifier"/>
            <ItemRef ItemOID="EG.EGBEATNO"
                     Mandatory="No"
                     OrderNumber="14"
                     Role="Variable Qualifier"/>
            <ItemRef ItemOID="EG.EGORRES"
                     Mandatory="No"
                     MethodOID="IMP.CM4620-203:EG.61.EG.EGORRES"
                     OrderNumber="15"
                     Role="Result Qualifier"/>
            <ItemRef ItemOID="EG.EGORRESU"
                     Mandatory="No"
                     MethodOID="IMP.CM4620-203:EG.61.EG.EGORRESU"
                     OrderNumber="16"
                     Role="Variable Qualifier"/>
            <ItemRef ItemOID="EG.EGSTRESC"
                     Mandatory="No"
                     MethodOID="IMP.CM4620-203:EG.61.EG.EGSTRESC"
                     OrderNumber="17"
                     Role="Result Qualifier"/>
            <ItemRef ItemOID="EG.EGSTRESN"
                     Mandatory="No"
                     MethodOID="IMP.CM4620-203:EG.61.EG.EGSTRESN"
                     OrderNumber="18"
                     Role="Result Qualifier"/>
            <ItemRef ItemOID="EG.EGSTRESU"
                     Mandatory="No"
                     MethodOID="IMP.CM4620-203:EG.61.EG.EGSTRESU"
                     OrderNumber="19"
                     Role="Variable Qualifier"/>
            <ItemRef ItemOID="EG.EGSTAT"
                     Mandatory="No"
                     OrderNumber="20"
                     Role="Record Qualifier"/>
            <ItemRef ItemOID="EG.EGREASND"
                     Mandatory="No"
                     OrderNumber="21"
                     Role="Record Qualifier"/>
            <ItemRef ItemOID="EG.EGXFN"
                     Mandatory="No"
                     OrderNumber="22"
                     Role="Record Qualifier"/>
            <ItemRef ItemOID="EG.EGNAM"
                     Mandatory="No"
                     OrderNumber="23"
                     Role="Record Qualifier"/>
            <ItemRef ItemOID="EG.EGMETHOD"
                     Mandatory="No"
                     OrderNumber="24"
                     Role="Record Qualifier"/>
            <ItemRef ItemOID="EG.EGLEAD"
                     Mandatory="No"
                     OrderNumber="25"
                     Role="Record Qualifier"/>
            <ItemRef ItemOID="EG.EGLOBXFL"
                     Mandatory="No"
                     OrderNumber="26"
                     Role="Record Qualifier"/>
            <ItemRef ItemOID="EG.EGBLFL"
                     Mandatory="No"
                     MethodOID="IMP.CM4620-203:EG.61.EG.EGBLFL"
                     OrderNumber="27"
                     Role="Record Qualifier"/>
            <ItemRef ItemOID="EG.EGDRVFL"
                     Mandatory="No"
                     OrderNumber="28"
                     Role="Record Qualifier"/>
            <ItemRef ItemOID="EG.EGEVAL"
                     Mandatory="No"
                     OrderNumber="29"
                     Role="Record Qualifier"/>
            <ItemRef ItemOID="EG.EGEVALID"
                     Mandatory="No"
                     OrderNumber="30"
                     Role="Variable Qualifier"/>
            <ItemRef ItemOID="EG.EGREPNUM"
                     Mandatory="No"
                     OrderNumber="31"
                     Role="Record Qualifier"/>
            <ItemRef ItemOID="EG.VISITNUM"
                     KeySequence="4"
                     Mandatory="No"
                     MethodOID="IMP.CM4620-203:EG.61.EG.VISITNUM"
                     OrderNumber="32"
                     Role="Timing"/>
            <ItemRef ItemOID="EG.VISIT"
                     Mandatory="No"
                     MethodOID="IMP.CM4620-203:EG.61.EG.VISIT"
                     OrderNumber="33"
                     Role="Timing"/>
            <ItemRef ItemOID="EG.VISITDY"
                     Mandatory="No"
                     OrderNumber="34"
                     Role="Timing"/>
            <ItemRef ItemOID="EG.TAETORD"
                     Mandatory="No"
                     OrderNumber="35"
                     Role="Timing"/>
            <ItemRef ItemOID="EG.EPOCH"
                     Mandatory="No"
                     MethodOID="IMP.CM4620-203:EG.61.EG.EPOCH"
                     OrderNumber="36"
                     Role="Timing"/>
            <ItemRef ItemOID="EG.EGDTC"
                     Mandatory="No"
                     MethodOID="IMP.CM4620-203:EG.61.EG.EGDTC"
                     OrderNumber="37"
                     Role="Timing"/>
            <ItemRef ItemOID="EG.EGDY"
                     Mandatory="No"
                     MethodOID="IMP.CM4620-203:EG.61.EG.EGDY"
                     OrderNumber="38"
                     Role="Timing"/>
            <ItemRef ItemOID="EG.EGTPT"
                     Mandatory="No"
                     OrderNumber="39"
                     Role="Timing"/>
            <ItemRef ItemOID="EG.EGTPTNUM"
                     Mandatory="No"
                     OrderNumber="40"
                     Role="Timing"/>
            <ItemRef ItemOID="EG.EGELTM"
                     Mandatory="No"
                     OrderNumber="41"
                     Role="Timing"/>
            <ItemRef ItemOID="EG.EGTPTREF"
                     Mandatory="No"
                     OrderNumber="42"
                     Role="Timing"/>
            <ItemRef ItemOID="EG.EGRFTDTC"
                     Mandatory="No"
                     OrderNumber="43"
                     Role="Timing"/>
            <ItemRef ItemOID="EG.EGENTPT"
                     Mandatory="No"
                     MethodOID="IMP.CM4620-203:EG.61.EG.EGENTPT"
                     OrderNumber="44"
                     Role="Timing"/>
            <def:Class Name="FINDINGS"/>
            <def:leaf ID="Location.CM4620-203.EG"
                      xlink:href="S:\CAL\CDISC\Software\analysis\test\203\DATA\EG.xpt">
               <def:title>S:\CAL\CDISC\Software\analysis\test\203\DATA\EG.xpt</def:title>
            </def:leaf>
         </ItemGroupDef>
         <ItemDef DataType="text"
                  Length="10"
                  Name="STUDYID"
                  OID="STUDYID"
                  SASFieldName="STUDYID">
            <Description>
               <TranslatedText xml:lang="en">Study Identifier</TranslatedText>
            </Description>
            <def:Origin Source="Sponsor" Type="Protocol"/>
         </ItemDef>
         <ItemDef DataType="text"
                  Length="2"
                  Name="DOMAIN"
                  OID="DOMAIN"
                  SASFieldName="DOMAIN">
            <Description>
               <TranslatedText xml:lang="en">Domain Abbreviation</TranslatedText>
            </Description>
            <def:Origin Source="Vendor" Type="Assigned"/>
         </ItemDef>
         <ItemDef DataType="text"
                  Length="2"
                  Name="RDOMAIN"
                  OID="RDOMAIN"
                  SASFieldName="RDOMAIN">
            <Description>
               <TranslatedText xml:lang="en">Related Domain Abbreviation</TranslatedText>
            </Description>
         </ItemDef>
         <ItemDef DataType="text"
                  Length="11"
                  Name="USUBJID"
                  OID="USUBJID"
                  SASFieldName="USUBJID">
            <Description>
               <TranslatedText xml:lang="en">Unique Subject Identifier</TranslatedText>
            </Description>
            <def:Origin Source="Sponsor" Type="Assigned"/>
         </ItemDef>
         <ItemDef DataType="integer"
                  Length="80"
                  Name="COSEQ"
                  OID="CO.COSEQ"
                  SASFieldName="COSEQ">
            <Description>
               <TranslatedText xml:lang="en">Sequence Number</TranslatedText>
            </Description>
         </ItemDef>
         <ItemDef DataType="text"
                  Length="8"
                  Name="IDVAR"
                  OID="CO.IDVAR"
                  SASFieldName="IDVAR">
            <Description>
               <TranslatedText xml:lang="en">Identifying Variable</TranslatedText>
            </Description>
         </ItemDef>
         <ItemDef DataType="text"
                  Length="80"
                  Name="IDVARVAL"
                  OID="CO.IDVARVAL"
                  SASFieldName="IDVARVAL">
            <Description>
               <TranslatedText xml:lang="en">Identifying Variable Value</TranslatedText>
            </Description>
         </ItemDef>
         <ItemDef DataType="text"
                  Length="80"
                  Name="COREF"
                  OID="CO.COREF"
                  SASFieldName="COREF">
            <Description>
               <TranslatedText xml:lang="en">Comment Reference</TranslatedText>
            </Description>
         </ItemDef>
         <ItemDef DataType="text"
                  Length="80"
                  Name="COVAL"
                  OID="CO.COVAL"
                  SASFieldName="COVAL">
            <Description>
               <TranslatedText xml:lang="en">Comment</TranslatedText>
            </Description>
         </ItemDef>
         <ItemDef DataType="text"
                  Length="80"
                  Name="COEVAL"
                  OID="CO.COEVAL"
                  SASFieldName="COEVAL">
            <Description>
               <TranslatedText xml:lang="en">Evaluator</TranslatedText>
            </Description>
         </ItemDef>
         <ItemDef DataType="text"
                  Length="80"
                  Name="COEVALID"
                  OID="CO.COEVALID"
                  SASFieldName="COEVALID">
            <Description>
               <TranslatedText xml:lang="en">Evaluator Identifier</TranslatedText>
            </Description>
            <CodeListRef CodeListOID="CL.C96777.MEDEVAL"/>
         </ItemDef>
         <ItemDef DataType="datetime"
                  Name="CODTC"
                  OID="CO.CODTC"
                  SASFieldName="CODTC">
            <Description>
               <TranslatedText xml:lang="en">Date/Time of Comment</TranslatedText>
            </Description>
         </ItemDef>
         <ItemDef DataType="integer"
                  Length="80"
                  Name="CODY"
                  OID="CO.CODY"
                  SASFieldName="CODY">
            <Description>
               <TranslatedText xml:lang="en">Study Day of Comment</TranslatedText>
            </Description>
         </ItemDef>
         <ItemDef DataType="text"
                  Length="80"
                  Name="SUBJID"
                  OID="SUBJID"
                  SASFieldName="SUBJID">
            <Description>
               <TranslatedText xml:lang="en">Subject Identifier for the Study</TranslatedText>
            </Description>
            <def:Origin Source="Sponsor" Type="Derived"/>
         </ItemDef>
         <ItemDef DataType="datetime"
                  Name="RFSTDTC"
                  OID="DM.RFSTDTC"
                  SASFieldName="RFSTDTC">
            <Description>
               <TranslatedText xml:lang="en">Subject Reference Start Date/Time</TranslatedText>
            </Description>
            <def:Origin Source="Vendor" Type="Derived"/>
         </ItemDef>
         <ItemDef DataType="datetime"
                  Name="RFENDTC"
                  OID="DM.RFENDTC"
                  SASFieldName="RFENDTC">
            <Description>
               <TranslatedText xml:lang="en">Subject Reference End Date/Time</TranslatedText>
            </Description>
            <def:Origin Source="Vendor" Type="Derived"/>
         </ItemDef>
         <ItemDef DataType="datetime"
                  Name="RFXSTDTC"
                  OID="DM.RFXSTDTC"
                  SASFieldName="RFXSTDTC">
            <Description>
               <TranslatedText xml:lang="en">Date/Time of First Study Treatment</TranslatedText>
            </Description>
            <def:Origin Source="Vendor" Type="Derived"/>
         </ItemDef>
         <ItemDef DataType="datetime"
                  Name="RFXENDTC"
                  OID="DM.RFXENDTC"
                  SASFieldName="RFXENDTC">
            <Description>
               <TranslatedText xml:lang="en">Date/Time of Last Study Treatment</TranslatedText>
            </Description>
            <def:Origin Source="Vendor" Type="Derived"/>
         </ItemDef>
         <ItemDef DataType="datetime"
                  Name="RFICDTC"
                  OID="DM.RFICDTC"
                  SASFieldName="RFICDTC">
            <Description>
               <TranslatedText xml:lang="en">Date/Time of Informed Consent</TranslatedText>
            </Description>
            <def:Origin Source="Vendor" Type="Derived"/>
         </ItemDef>
         <ItemDef DataType="datetime"
                  Name="RFPENDTC"
                  OID="DM.RFPENDTC"
                  SASFieldName="RFPENDTC">
            <Description>
               <TranslatedText xml:lang="en">Date/Time of End of Participation</TranslatedText>
            </Description>
         </ItemDef>
         <ItemDef DataType="datetime"
                  Name="DTHDTC"
                  OID="DM.DTHDTC"
                  SASFieldName="DTHDTC">
            <Description>
               <TranslatedText xml:lang="en">Date/Time of Death</TranslatedText>
            </Description>
         </ItemDef>
         <ItemDef DataType="text"
                  Length="2"
                  Name="DTHFL"
                  OID="DM.DTHFL"
                  SASFieldName="DTHFL">
            <Description>
               <TranslatedText xml:lang="en">Subject Death Flag</TranslatedText>
            </Description>
            <CodeListRef CodeListOID="CL.C66742.NY.YESONLY"/>
         </ItemDef>
         <ItemDef DataType="text"
                  Length="80"
                  Name="SITEID"
                  OID="DM.SITEID"
                  SASFieldName="SITEID">
            <Description>
               <TranslatedText xml:lang="en">Study Site Identifier</TranslatedText>
            </Description>
         </ItemDef>
         <ItemDef DataType="text"
                  Length="80"
                  Name="INVID"
                  OID="DM.INVID"
                  SASFieldName="INVID">
            <Description>
               <TranslatedText xml:lang="en">Investigator Identifier</TranslatedText>
            </Description>
         </ItemDef>
         <ItemDef DataType="text"
                  Length="80"
                  Name="INVNAM"
                  OID="DM.INVNAM"
                  SASFieldName="INVNAM">
            <Description>
               <TranslatedText xml:lang="en">Investigator Name</TranslatedText>
            </Description>
         </ItemDef>
         <ItemDef DataType="datetime"
                  Name="BRTHDTC"
                  OID="DM.BRTHDTC"
                  SASFieldName="BRTHDTC">
            <Description>
               <TranslatedText xml:lang="en">Date/Time of Birth</TranslatedText>
            </Description>
         </ItemDef>
         <ItemDef DataType="integer"
                  Length="80"
                  Name="AGE"
                  OID="DM.AGE"
                  SASFieldName="AGE">
            <Description>
               <TranslatedText xml:lang="en">Age</TranslatedText>
            </Description>
            <def:Origin Type="Collected">
               <def:DocumentRef leafID="LF.aCRF">
                  <def:PDFPageRef PageRefs="63" Type="PhysicalRef"/>
               </def:DocumentRef>
            </def:Origin>
         </ItemDef>
         <ItemDef DataType="text"
                  Length="80"
                  Name="AGEU"
                  OID="DM.AGEU"
                  SASFieldName="AGEU">
            <Description>
               <TranslatedText xml:lang="en">Age Units</TranslatedText>
            </Description>
            <CodeListRef CodeListOID="CL.C66781.AGEU.SUBSET"/>
         </ItemDef>
         <ItemDef DataType="text"
                  Length="80"
                  Name="SEX"
                  OID="DM.SEX"
                  SASFieldName="SEX">
            <Description>
               <TranslatedText xml:lang="en">Sex</TranslatedText>
            </Description>
            <CodeListRef CodeListOID="CM4620-203:CL.cSEX"/>
            <def:Origin Type="Collected">
               <def:DocumentRef leafID="LF.aCRF">
                  <def:PDFPageRef PageRefs="63" Type="PhysicalRef"/>
               </def:DocumentRef>
            </def:Origin>
         </ItemDef>
         <ItemDef DataType="text"
                  Length="80"
                  Name="RACE"
                  OID="DM.RACE"
                  SASFieldName="RACE">
            <Description>
               <TranslatedText xml:lang="en">Race</TranslatedText>
            </Description>
            <CodeListRef CodeListOID="CM4620-203:CL.cRACE"/>
            <def:Origin Type="Collected">
               <def:DocumentRef leafID="LF.aCRF">
                  <def:PDFPageRef PageRefs="3" Type="PhysicalRef"/>
               </def:DocumentRef>
            </def:Origin>
         </ItemDef>
         <ItemDef DataType="text"
                  Length="80"
                  Name="ETHNIC"
                  OID="DM.ETHNIC"
                  SASFieldName="ETHNIC">
            <Description>
               <TranslatedText xml:lang="en">Ethnicity</TranslatedText>
            </Description>
            <CodeListRef CodeListOID="CM4620-203:CL.cETHNIC"/>
            <def:Origin Type="Collected">
               <def:DocumentRef leafID="LF.aCRF">
                  <def:PDFPageRef PageRefs="2" Type="PhysicalRef"/>
               </def:DocumentRef>
            </def:Origin>
         </ItemDef>
         <ItemDef DataType="text"
                  Length="80"
                  Name="ARMCD"
                  OID="DM.ARMCD"
                  SASFieldName="ARMCD">
            <Description>
               <TranslatedText xml:lang="en">Planned Arm Code</TranslatedText>
            </Description>
         </ItemDef>
         <ItemDef DataType="text"
                  Length="80"
                  Name="ARM"
                  OID="DM.ARM"
                  SASFieldName="ARM">
            <Description>
               <TranslatedText xml:lang="en">Description of Planned Arm</TranslatedText>
            </Description>
         </ItemDef>
         <ItemDef DataType="text"
                  Length="80"
                  Name="ACTARMCD"
                  OID="DM.ACTARMCD"
                  SASFieldName="ACTARMCD">
            <Description>
               <TranslatedText xml:lang="en">Actual Arm Code</TranslatedText>
            </Description>
         </ItemDef>
         <ItemDef DataType="text"
                  Length="80"
                  Name="ACTARM"
                  OID="DM.ACTARM"
                  SASFieldName="ACTARM">
            <Description>
               <TranslatedText xml:lang="en">Description of Actual Arm</TranslatedText>
            </Description>
         </ItemDef>
         <ItemDef DataType="text"
                  Length="80"
                  Name="ARMNRS"
                  OID="DM.ARMNRS"
                  SASFieldName="ARMNRS">
            <Description>
               <TranslatedText xml:lang="en">Reason Arm and/or Actual Arm is Null</TranslatedText>
            </Description>
         </ItemDef>
         <ItemDef DataType="text"
                  Length="80"
                  Name="ACTARMUD"
                  OID="DM.ACTARMUD"
                  SASFieldName="ACTARMUD">
            <Description>
               <TranslatedText xml:lang="en">Description of Unplanned Actual Arm</TranslatedText>
            </Description>
         </ItemDef>
         <ItemDef DataType="text"
                  Length="80"
                  Name="COUNTRY"
                  OID="DM.COUNTRY"
                  SASFieldName="COUNTRY">
            <Description>
               <TranslatedText xml:lang="en">Country</TranslatedText>
            </Description>
            <CodeListRef CodeListOID="CL.ISO3166"/>
         </ItemDef>
         <ItemDef DataType="datetime"
                  Name="DMDTC"
                  OID="DM.DMDTC"
                  SASFieldName="DMDTC">
            <Description>
               <TranslatedText xml:lang="en">Date/Time of Collection</TranslatedText>
            </Description>
         </ItemDef>
         <ItemDef DataType="integer"
                  Length="80"
                  Name="DMDY"
                  OID="DM.DMDY"
                  SASFieldName="DMDY">
            <Description>
               <TranslatedText xml:lang="en">Study Day of Collection</TranslatedText>
            </Description>
         </ItemDef>
         <ItemDef DataType="integer"
                  Length="80"
                  Name="SESEQ"
                  OID="SE.SESEQ"
                  SASFieldName="SESEQ">
            <Description>
               <TranslatedText xml:lang="en">Sequence Number</TranslatedText>
            </Description>
         </ItemDef>
         <ItemDef DataType="text"
                  Length="80"
                  Name="ETCD"
                  OID="SE.ETCD"
                  SASFieldName="ETCD">
            <Description>
               <TranslatedText xml:lang="en">Element Code</TranslatedText>
            </Description>
         </ItemDef>
         <ItemDef DataType="text"
                  Length="80"
                  Name="ELEMENT"
                  OID="SE.ELEMENT"
                  SASFieldName="ELEMENT">
            <Description>
               <TranslatedText xml:lang="en">Description of Element</TranslatedText>
            </Description>
         </ItemDef>
         <ItemDef DataType="integer"
                  Length="8"
                  Name="TAETORD"
                  OID="SE.TAETORD"
                  SASFieldName="TAETORD">
            <Description>
               <TranslatedText xml:lang="en">Planned Order of Element within Arm</TranslatedText>
            </Description>
         </ItemDef>
         <ItemDef DataType="text"
                  Length="80"
                  Name="EPOCH"
                  OID="SE.EPOCH"
                  SASFieldName="EPOCH">
            <Description>
               <TranslatedText xml:lang="en">Epoch</TranslatedText>
            </Description>
            <CodeListRef CodeListOID="CL.C99079.EPOCH"/>
         </ItemDef>
         <ItemDef DataType="datetime"
                  Name="SESTDTC"
                  OID="SE.SESTDTC"
                  SASFieldName="SESTDTC">
            <Description>
               <TranslatedText xml:lang="en">Start Date/Time of Element</TranslatedText>
            </Description>
         </ItemDef>
         <ItemDef DataType="datetime"
                  Name="SEENDTC"
                  OID="SE.SEENDTC"
                  SASFieldName="SEENDTC">
            <Description>
               <TranslatedText xml:lang="en">End Date/Time of Element</TranslatedText>
            </Description>
         </ItemDef>
         <ItemDef DataType="text"
                  Length="80"
                  Name="SEUPDES"
                  OID="SE.SEUPDES"
                  SASFieldName="SEUPDES">
            <Description>
               <TranslatedText xml:lang="en">Description of Unplanned Element</TranslatedText>
            </Description>
         </ItemDef>
         <ItemDef DataType="integer"
                  Length="80"
                  Name="SMSEQ"
                  OID="SM.SMSEQ"
                  SASFieldName="SMSEQ">
            <Description>
               <TranslatedText xml:lang="en">Sequence Number</TranslatedText>
            </Description>
         </ItemDef>
         <ItemDef DataType="text"
                  Length="80"
                  Name="MIDS"
                  OID="SM.MIDS"
                  SASFieldName="MIDS">
            <Description>
               <TranslatedText xml:lang="en">Disease Milestone Instance Name</TranslatedText>
            </Description>
         </ItemDef>
         <ItemDef DataType="text"
                  Length="80"
                  Name="MIDSTYPE"
                  OID="SM.MIDSTYPE"
                  SASFieldName="MIDSTYPE">
            <Description>
               <TranslatedText xml:lang="en">Disease Milestone Type</TranslatedText>
            </Description>
         </ItemDef>
         <ItemDef DataType="datetime"
                  Name="SMSTDTC"
                  OID="SM.SMSTDTC"
                  SASFieldName="SMSTDTC">
            <Description>
               <TranslatedText xml:lang="en">Start Date/Time of Milestone</TranslatedText>
            </Description>
         </ItemDef>
         <ItemDef DataType="datetime"
                  Name="SMENDTC"
                  OID="SM.SMENDTC"
                  SASFieldName="SMENDTC">
            <Description>
               <TranslatedText xml:lang="en">End Date/Time of Milestone</TranslatedText>
            </Description>
         </ItemDef>
         <ItemDef DataType="integer"
                  Length="80"
                  Name="SMSTDY"
                  OID="SM.SMSTDY"
                  SASFieldName="SMSTDY">
            <Description>
               <TranslatedText xml:lang="en">Study Day of Start of Milestone</TranslatedText>
            </Description>
         </ItemDef>
         <ItemDef DataType="integer"
                  Length="80"
                  Name="SMENDY"
                  OID="SM.SMENDY"
                  SASFieldName="SMENDY">
            <Description>
               <TranslatedText xml:lang="en">Study Day of End of Milestone</TranslatedText>
            </Description>
         </ItemDef>
         <ItemDef DataType="integer"
                  Length="80"
                  Name="VISITNUM"
                  OID="SV.VISITNUM"
                  SASFieldName="VISITNUM">
            <Description>
               <TranslatedText xml:lang="en">Visit Number</TranslatedText>
            </Description>
            <def:Origin Source="Sponsor" Type="Assigned"/>
         </ItemDef>
         <ItemDef DataType="text"
                  Length="80"
                  Name="VISIT"
                  OID="SV.VISIT"
                  SASFieldName="VISIT">
            <Description>
               <TranslatedText xml:lang="en">Visit Name</TranslatedText>
            </Description>
            <def:Origin Source="Sponsor" Type="Derived"/>
         </ItemDef>
         <ItemDef DataType="integer"
                  Length="80"
                  Name="VISITDY"
                  OID="SV.VISITDY"
                  SASFieldName="VISITDY">
            <Description>
               <TranslatedText xml:lang="en">Planned Study Day of Visit</TranslatedText>
            </Description>
         </ItemDef>
         <ItemDef DataType="datetime"
                  Name="SVSTDTC"
                  OID="SV.SVSTDTC"
                  SASFieldName="SVSTDTC">
            <Description>
               <TranslatedText xml:lang="en">Start Date/Time of Visit</TranslatedText>
            </Description>
            <def:Origin Source="Vendor" Type="Derived"/>
         </ItemDef>
         <ItemDef DataType="datetime"
                  Name="SVENDTC"
                  OID="SV.SVENDTC"
                  SASFieldName="SVENDTC">
            <Description>
               <TranslatedText xml:lang="en">End Date/Time of Visit</TranslatedText>
            </Description>
            <def:Origin Source="Vendor" Type="Derived"/>
         </ItemDef>
         <ItemDef DataType="integer"
                  Length="80"
                  Name="SVSTDY"
                  OID="SV.SVSTDY"
                  SASFieldName="SVSTDY">
            <Description>
               <TranslatedText xml:lang="en">Study Day of Start of Visit</TranslatedText>
            </Description>
            <def:Origin Source="Vendor" Type="Derived"/>
         </ItemDef>
         <ItemDef DataType="integer"
                  Length="80"
                  Name="SVENDY"
                  OID="SV.SVENDY"
                  SASFieldName="SVENDY">
            <Description>
               <TranslatedText xml:lang="en">Study Day of End of Visit</TranslatedText>
            </Description>
         </ItemDef>
         <ItemDef DataType="text"
                  Length="80"
                  Name="SVUPDES"
                  OID="SV.SVUPDES"
                  SASFieldName="SVUPDES">
            <Description>
               <TranslatedText xml:lang="en">Description of Unplanned Visit</TranslatedText>
            </Description>
         </ItemDef>
         <ItemDef DataType="integer"
                  Length="80"
                  Name="AGSEQ"
                  OID="AG.AGSEQ"
                  SASFieldName="AGSEQ">
            <Description>
               <TranslatedText xml:lang="en">Sequence Number</TranslatedText>
            </Description>
         </ItemDef>
         <ItemDef DataType="text"
                  Length="80"
                  Name="AGGRPID"
                  OID="AG.AGGRPID"
                  SASFieldName="AGGRPID">
            <Description>
               <TranslatedText xml:lang="en">Group ID</TranslatedText>
            </Description>
         </ItemDef>
         <ItemDef DataType="text"
                  Length="80"
                  Name="AGSPID"
                  OID="AG.AGSPID"
                  SASFieldName="AGSPID">
            <Description>
               <TranslatedText xml:lang="en">Sponsor-Defined Identifier</TranslatedText>
            </Description>
         </ItemDef>
         <ItemDef DataType="text"
                  Length="80"
                  Name="AGLNKID"
                  OID="AG.AGLNKID"
                  SASFieldName="AGLNKID">
            <Description>
               <TranslatedText xml:lang="en">Link ID</TranslatedText>
            </Description>
         </ItemDef>
         <ItemDef DataType="text"
                  Length="80"
                  Name="AGLNKGRP"
                  OID="AG.AGLNKGRP"
                  SASFieldName="AGLNKGRP">
            <Description>
               <TranslatedText xml:lang="en">Link Group ID</TranslatedText>
            </Description>
         </ItemDef>
         <ItemDef DataType="text"
                  Length="80"
                  Name="AGTRT"
                  OID="AG.AGTRT"
                  SASFieldName="AGTRT">
            <Description>
               <TranslatedText xml:lang="en">Reported Agent Name</TranslatedText>
            </Description>
         </ItemDef>
         <ItemDef DataType="text"
                  Length="80"
                  Name="AGMODIFY"
                  OID="AG.AGMODIFY"
                  SASFieldName="AGMODIFY">
            <Description>
               <TranslatedText xml:lang="en">Modified Reported Name</TranslatedText>
            </Description>
         </ItemDef>
         <ItemDef DataType="text"
                  Length="80"
                  Name="AGDECOD"
                  OID="AG.AGDECOD"
                  SASFieldName="AGDECOD">
            <Description>
               <TranslatedText xml:lang="en">Standardized Agent Name</TranslatedText>
            </Description>
         </ItemDef>
         <ItemDef DataType="text"
                  Length="80"
                  Name="AGCAT"
                  OID="AG.AGCAT"
                  SASFieldName="AGCAT">
            <Description>
               <TranslatedText xml:lang="en">Category for Agent</TranslatedText>
            </Description>
         </ItemDef>
         <ItemDef DataType="text"
                  Length="80"
                  Name="AGSCAT"
                  OID="AG.AGSCAT"
                  SASFieldName="AGSCAT">
            <Description>
               <TranslatedText xml:lang="en">Subcategory for Agent</TranslatedText>
            </Description>
         </ItemDef>
         <ItemDef DataType="text"
                  Length="2"
                  Name="AGPRESP"
                  OID="AG.AGPRESP"
                  SASFieldName="AGPRESP">
            <Description>
               <TranslatedText xml:lang="en">AG Pre-Specified</TranslatedText>
            </Description>
            <CodeListRef CodeListOID="CL.C66742.NY"/>
         </ItemDef>
         <ItemDef DataType="text"
                  Length="2"
                  Name="AGOCCUR"
                  OID="AG.AGOCCUR"
                  SASFieldName="AGOCCUR">
            <Description>
               <TranslatedText xml:lang="en">AG Occurrence</TranslatedText>
            </Description>
            <CodeListRef CodeListOID="CL.C66742.NY"/>
         </ItemDef>
         <ItemDef DataType="text"
                  Length="80"
                  Name="AGSTAT"
                  OID="AG.AGSTAT"
                  SASFieldName="AGSTAT">
            <Description>
               <TranslatedText xml:lang="en">Completion Status</TranslatedText>
            </Description>
            <CodeListRef CodeListOID="CL.C66789.ND"/>
         </ItemDef>
         <ItemDef DataType="text"
                  Length="80"
                  Name="AGREASND"
                  OID="AG.AGREASND"
                  SASFieldName="AGREASND">
            <Description>
               <TranslatedText xml:lang="en">Reason Procedure Agent Not Collected</TranslatedText>
            </Description>
         </ItemDef>
         <ItemDef DataType="text"
                  Length="80"
                  Name="AGCLAS"
                  OID="AG.AGCLAS"
                  SASFieldName="AGCLAS">
            <Description>
               <TranslatedText xml:lang="en">Agent Class</TranslatedText>
            </Description>
         </ItemDef>
         <ItemDef DataType="text"
                  Length="80"
                  Name="AGCLASCD"
                  OID="AG.AGCLASCD"
                  SASFieldName="AGCLASCD">
            <Description>
               <TranslatedText xml:lang="en">Agent Class Code</TranslatedText>
            </Description>
         </ItemDef>
         <ItemDef DataType="integer"
                  Length="80"
                  Name="AGDOSE"
                  OID="AG.AGDOSE"
                  SASFieldName="AGDOSE">
            <Description>
               <TranslatedText xml:lang="en">Dose per Administration</TranslatedText>
            </Description>
         </ItemDef>
         <ItemDef DataType="text"
                  Length="80"
                  Name="AGDOSTXT"
                  OID="AG.AGDOSTXT"
                  SASFieldName="AGDOSTXT">
            <Description>
               <TranslatedText xml:lang="en">Dose Description</TranslatedText>
            </Description>
         </ItemDef>
         <ItemDef DataType="text"
                  Length="80"
                  Name="AGDOSU"
                  OID="AG.AGDOSU"
                  SASFieldName="AGDOSU">
            <Description>
               <TranslatedText xml:lang="en">Dose Units</TranslatedText>
            </Description>
            <CodeListRef CodeListOID="CL.C71620.UNIT"/>
         </ItemDef>
         <ItemDef DataType="text"
                  Length="80"
                  Name="AGDOSFRM"
                  OID="AG.AGDOSFRM"
                  SASFieldName="AGDOSFRM">
            <Description>
               <TranslatedText xml:lang="en">Dose Form</TranslatedText>
            </Description>
            <CodeListRef CodeListOID="CL.C66726.FRM"/>
         </ItemDef>
         <ItemDef DataType="text"
                  Length="80"
                  Name="AGDOSFRQ"
                  OID="AG.AGDOSFRQ"
                  SASFieldName="AGDOSFRQ">
            <Description>
               <TranslatedText xml:lang="en">Dosing Frequency per Interval</TranslatedText>
            </Description>
            <CodeListRef CodeListOID="CL.C71113.FREQ"/>
         </ItemDef>
         <ItemDef DataType="text"
                  Length="80"
                  Name="AGROUTE"
                  OID="AG.AGROUTE"
                  SASFieldName="AGROUTE">
            <Description>
               <TranslatedText xml:lang="en">Route of Administration</TranslatedText>
            </Description>
            <CodeListRef CodeListOID="CL.C66729.ROUTE"/>
         </ItemDef>
         <ItemDef DataType="integer"
                  Length="80"
                  Name="VISITNUM"
                  OID="AG.VISITNUM"
                  SASFieldName="VISITNUM">
            <Description>
               <TranslatedText xml:lang="en">Visit Number</TranslatedText>
            </Description>
         </ItemDef>
         <ItemDef DataType="text"
                  Length="80"
                  Name="VISIT"
                  OID="AG.VISIT"
                  SASFieldName="VISIT">
            <Description>
               <TranslatedText xml:lang="en">Visit Name</TranslatedText>
            </Description>
         </ItemDef>
         <ItemDef DataType="integer"
                  Length="80"
                  Name="VISITDY"
                  OID="AG.VISITDY"
                  SASFieldName="VISITDY">
            <Description>
               <TranslatedText xml:lang="en">Planned Study Day of Visit</TranslatedText>
            </Description>
         </ItemDef>
         <ItemDef DataType="integer"
                  Length="8"
                  Name="TAETORD"
                  OID="AG.TAETORD"
                  SASFieldName="TAETORD">
            <Description>
               <TranslatedText xml:lang="en">Planned Order of Element within Arm</TranslatedText>
            </Description>
         </ItemDef>
         <ItemDef DataType="text"
                  Length="80"
                  Name="EPOCH"
                  OID="AG.EPOCH"
                  SASFieldName="EPOCH">
            <Description>
               <TranslatedText xml:lang="en">Epoch</TranslatedText>
            </Description>
            <CodeListRef CodeListOID="CL.C99079.EPOCH"/>
         </ItemDef>
         <ItemDef DataType="datetime"
                  Name="AGSTDTC"
                  OID="AG.AGSTDTC"
                  SASFieldName="AGSTDTC">
            <Description>
               <TranslatedText xml:lang="en">Start Date/Time of Agent</TranslatedText>
            </Description>
         </ItemDef>
         <ItemDef DataType="datetime"
                  Name="AGENDTC"
                  OID="AG.AGENDTC"
                  SASFieldName="AGENDTC">
            <Description>
               <TranslatedText xml:lang="en">End Date/Time of Agent</TranslatedText>
            </Description>
         </ItemDef>
         <ItemDef DataType="integer"
                  Length="80"
                  Name="AGSTDY"
                  OID="AG.AGSTDY"
                  SASFieldName="AGSTDY">
            <Description>
               <TranslatedText xml:lang="en">Study Day of Start of Agent</TranslatedText>
            </Description>
         </ItemDef>
         <ItemDef DataType="integer"
                  Length="80"
                  Name="AGENDY"
                  OID="AG.AGENDY"
                  SASFieldName="AGENDY">
            <Description>
               <TranslatedText xml:lang="en">Study Day of End of Agent</TranslatedText>
            </Description>
         </ItemDef>
         <ItemDef DataType="durationDatetime"
                  Name="AGDUR"
                  OID="AG.AGDUR"
                  SASFieldName="AGDUR">
            <Description>
               <TranslatedText xml:lang="en">Duration of Agent</TranslatedText>
            </Description>
         </ItemDef>
         <ItemDef DataType="text"
                  Length="80"
                  Name="AGSTRF"
                  OID="AG.AGSTRF"
                  SASFieldName="AGSTRF">
            <Description>
               <TranslatedText xml:lang="en">Start Relative to Reference Period</TranslatedText>
            </Description>
            <CodeListRef CodeListOID="CL.C66728.STENRF"/>
         </ItemDef>
         <ItemDef DataType="text"
                  Length="80"
                  Name="AGENRF"
                  OID="AG.AGENRF"
                  SASFieldName="AGENRF">
            <Description>
               <TranslatedText xml:lang="en">End Relative to Reference Period</TranslatedText>
            </Description>
            <CodeListRef CodeListOID="CL.C66728.STENRF"/>
         </ItemDef>
         <ItemDef DataType="text"
                  Length="80"
                  Name="AGSTRTPT"
                  OID="AG.AGSTRTPT"
                  SASFieldName="AGSTRTPT">
            <Description>
               <TranslatedText xml:lang="en">Start Relative to Reference Time Point</TranslatedText>
            </Description>
            <CodeListRef CodeListOID="CL.C66728.STENRF.FORTPT"/>
         </ItemDef>
         <ItemDef DataType="text"
                  Length="80"
                  Name="AGSTTPT"
                  OID="AG.AGSTTPT"
                  SASFieldName="AGSTTPT">
            <Description>
               <TranslatedText xml:lang="en">Start Reference Time Point</TranslatedText>
            </Description>
         </ItemDef>
         <ItemDef DataType="text"
                  Length="80"
                  Name="AGENRTPT"
                  OID="AG.AGENRTPT"
                  SASFieldName="AGENRTPT">
            <Description>
               <TranslatedText xml:lang="en">End Relative to Reference Time Point</TranslatedText>
            </Description>
            <CodeListRef CodeListOID="CL.C66728.STENRF.FORTPT"/>
         </ItemDef>
         <ItemDef DataType="text"
                  Length="80"
                  Name="AGENTPT"
                  OID="AG.AGENTPT"
                  SASFieldName="AGENTPT">
            <Description>
               <TranslatedText xml:lang="en">End Reference Time Point</TranslatedText>
            </Description>
         </ItemDef>
         <ItemDef DataType="integer"
                  Length="80"
                  Name="CMSEQ"
                  OID="CM.CMSEQ"
                  SASFieldName="CMSEQ">
            <Description>
               <TranslatedText xml:lang="en">Sequence Number</TranslatedText>
            </Description>
            <def:Origin Source="Sponsor" Type="Derived"/>
         </ItemDef>
         <ItemDef DataType="text"
                  Length="80"
                  Name="CMGRPID"
                  OID="CM.CMGRPID"
                  SASFieldName="CMGRPID">
            <Description>
               <TranslatedText xml:lang="en">Group ID</TranslatedText>
            </Description>
         </ItemDef>
         <ItemDef DataType="text"
                  Length="80"
                  Name="CMSPID"
                  OID="CM.CMSPID"
                  SASFieldName="CMSPID">
            <Description>
               <TranslatedText xml:lang="en">Sponsor-Defined Identifier</TranslatedText>
            </Description>
         </ItemDef>
         <ItemDef DataType="text"
                  Length="80"
                  Name="CMTRT"
                  OID="CM.CMTRT"
                  SASFieldName="CMTRT">
            <Description>
               <TranslatedText xml:lang="en">Reported Name of Drug, Med, or Therapy</TranslatedText>
            </Description>
            <def:Origin Type="Collected">
               <def:DocumentRef leafID="LF.aCRF">
                  <def:PDFPageRef PageRefs="17 73 75 98 101" Type="PhysicalRef"/>
               </def:DocumentRef>
            </def:Origin>
         </ItemDef>
         <ItemDef DataType="text"
                  Length="80"
                  Name="CMMODIFY"
                  OID="CM.CMMODIFY"
                  SASFieldName="CMMODIFY">
            <Description>
               <TranslatedText xml:lang="en">Modified Reported Name</TranslatedText>
            </Description>
         </ItemDef>
         <ItemDef DataType="text"
                  Length="200"
                  Name="CMDECOD"
                  OID="CM.CMDECOD"
                  SASFieldName="CMDECOD">
            <Description>
               <TranslatedText xml:lang="en">Standardized Medication Name</TranslatedText>
            </Description>
            <def:Origin Source="Sponsor" Type="Assigned"/>
         </ItemDef>
         <ItemDef DataType="text"
                  Length="80"
                  Name="CMCAT"
                  OID="CM.CMCAT"
                  SASFieldName="CMCAT">
            <Description>
               <TranslatedText xml:lang="en">Category for Medication</TranslatedText>
            </Description>
         </ItemDef>
         <ItemDef DataType="text"
                  Length="80"
                  Name="CMSCAT"
                  OID="CM.CMSCAT"
                  SASFieldName="CMSCAT">
            <Description>
               <TranslatedText xml:lang="en">Subcategory for Medication</TranslatedText>
            </Description>
         </ItemDef>
         <ItemDef DataType="text"
                  Length="2"
                  Name="CMPRESP"
                  OID="CM.CMPRESP"
                  SASFieldName="CMPRESP">
            <Description>
               <TranslatedText xml:lang="en">CM Pre-specified</TranslatedText>
            </Description>
            <CodeListRef CodeListOID="CL.C66742.NY"/>
         </ItemDef>
         <ItemDef DataType="text"
                  Length="2"
                  Name="CMOCCUR"
                  OID="CM.CMOCCUR"
                  SASFieldName="CMOCCUR">
            <Description>
               <TranslatedText xml:lang="en">CM Occurrence</TranslatedText>
            </Description>
            <CodeListRef CodeListOID="CL.C66742.NY"/>
         </ItemDef>
         <ItemDef DataType="text"
                  Length="80"
                  Name="CMSTAT"
                  OID="CM.CMSTAT"
                  SASFieldName="CMSTAT">
            <Description>
               <TranslatedText xml:lang="en">Completion Status</TranslatedText>
            </Description>
            <CodeListRef CodeListOID="CL.C66789.ND"/>
         </ItemDef>
         <ItemDef DataType="text"
                  Length="80"
                  Name="CMREASND"
                  OID="CM.CMREASND"
                  SASFieldName="CMREASND">
            <Description>
               <TranslatedText xml:lang="en">Reason Medication Not Collected</TranslatedText>
            </Description>
         </ItemDef>
         <ItemDef DataType="text"
                  Length="80"
                  Name="CMINDC"
                  OID="CM.CMINDC"
                  SASFieldName="CMINDC">
            <Description>
               <TranslatedText xml:lang="en">Indication</TranslatedText>
            </Description>
            <def:Origin Type="Collected">
               <def:DocumentRef leafID="LF.aCRF">
                  <def:PDFPageRef PageRefs="98" Type="PhysicalRef"/>
               </def:DocumentRef>
            </def:Origin>
         </ItemDef>
         <ItemDef DataType="text"
                  Length="200"
                  Name="CMCLAS"
                  OID="CM.CMCLAS"
                  SASFieldName="CMCLAS">
            <Description>
               <TranslatedText xml:lang="en">Medication Class</TranslatedText>
            </Description>
         </ItemDef>
         <ItemDef DataType="text"
                  Length="80"
                  Name="CMCLASCD"
                  OID="CM.CMCLASCD"
                  SASFieldName="CMCLASCD">
            <Description>
               <TranslatedText xml:lang="en">Medication Class Code</TranslatedText>
            </Description>
         </ItemDef>
         <ItemDef DataType="integer"
                  Length="80"
                  Name="CMDOSE"
                  OID="CM.CMDOSE"
                  SASFieldName="CMDOSE">
            <Description>
               <TranslatedText xml:lang="en">Dose per Administration</TranslatedText>
            </Description>
            <def:Origin Type="Collected">
               <def:DocumentRef leafID="LF.aCRF">
                  <def:PDFPageRef PageRefs="73 101" Type="PhysicalRef"/>
               </def:DocumentRef>
            </def:Origin>
         </ItemDef>
         <ItemDef DataType="text"
                  Length="80"
                  Name="CMDOSTXT"
                  OID="CM.CMDOSTXT"
                  SASFieldName="CMDOSTXT">
            <Description>
               <TranslatedText xml:lang="en">Dose Description</TranslatedText>
            </Description>
         </ItemDef>
         <ItemDef DataType="text"
                  Length="80"
                  Name="CMDOSU"
                  OID="CM.CMDOSU"
                  SASFieldName="CMDOSU">
            <Description>
               <TranslatedText xml:lang="en">Dose Units</TranslatedText>
            </Description>
            <CodeListRef CodeListOID="CL.C71620.UNIT"/>
            <def:Origin Type="Collected">
               <def:DocumentRef leafID="LF.aCRF">
                  <def:PDFPageRef PageRefs="73 76" Type="PhysicalRef"/>
               </def:DocumentRef>
            </def:Origin>
         </ItemDef>
         <ItemDef DataType="text"
                  Length="80"
                  Name="CMDOSFRM"
                  OID="CM.CMDOSFRM"
                  SASFieldName="CMDOSFRM">
            <Description>
               <TranslatedText xml:lang="en">Dose Form</TranslatedText>
            </Description>
            <CodeListRef CodeListOID="CL.C66726.FRM"/>
         </ItemDef>
         <ItemDef DataType="text"
                  Length="80"
                  Name="CMDOSFRQ"
                  OID="CM.CMDOSFRQ"
                  SASFieldName="CMDOSFRQ">
            <Description>
               <TranslatedText xml:lang="en">Dosing Frequency per Interval</TranslatedText>
            </Description>
            <CodeListRef CodeListOID="CL.C71113.FREQ"/>
            <def:Origin Type="Collected">
               <def:DocumentRef leafID="LF.aCRF">
                  <def:PDFPageRef PageRefs="102" Type="PhysicalRef"/>
               </def:DocumentRef>
            </def:Origin>
         </ItemDef>
         <ItemDef DataType="integer"
                  Length="80"
                  Name="CMDOSTOT"
                  OID="CM.CMDOSTOT"
                  SASFieldName="CMDOSTOT">
            <Description>
               <TranslatedText xml:lang="en">Total Daily Dose</TranslatedText>
            </Description>
            <def:Origin Type="Collected">
               <def:DocumentRef leafID="LF.aCRF">
                  <def:PDFPageRef PageRefs="101" Type="PhysicalRef"/>
               </def:DocumentRef>
            </def:Origin>
         </ItemDef>
         <ItemDef DataType="text"
                  Length="80"
                  Name="CMDOSRGM"
                  OID="CM.CMDOSRGM"
                  SASFieldName="CMDOSRGM">
            <Description>
               <TranslatedText xml:lang="en">Intended Dose Regimen</TranslatedText>
            </Description>
         </ItemDef>
         <ItemDef DataType="text"
                  Length="80"
                  Name="CMROUTE"
                  OID="CM.CMROUTE"
                  SASFieldName="CMROUTE">
            <Description>
               <TranslatedText xml:lang="en">Route of Administration</TranslatedText>
            </Description>
            <CodeListRef CodeListOID="CM4620-203:CL.cROUTEa"/>
            <def:Origin Type="Collected">
               <def:DocumentRef leafID="LF.aCRF">
                  <def:PDFPageRef PageRefs="18 74 77 99 103" Type="PhysicalRef"/>
               </def:DocumentRef>
            </def:Origin>
         </ItemDef>
         <ItemDef DataType="text"
                  Length="80"
                  Name="CMADJ"
                  OID="CM.CMADJ"
                  SASFieldName="CMADJ">
            <Description>
               <TranslatedText xml:lang="en">Reason for Dose Adjustment</TranslatedText>
            </Description>
         </ItemDef>
         <ItemDef DataType="text"
                  Length="80"
                  Name="CMRSDISC"
                  OID="CM.CMRSDISC"
                  SASFieldName="CMRSDISC">
            <Description>
               <TranslatedText xml:lang="en">Reason the Intervention Was Discontinued</TranslatedText>
            </Description>
         </ItemDef>
         <ItemDef DataType="integer"
                  Length="8"
                  Name="TAETORD"
                  OID="CM.TAETORD"
                  SASFieldName="TAETORD">
            <Description>
               <TranslatedText xml:lang="en">Planned Order of Element within Arm</TranslatedText>
            </Description>
         </ItemDef>
         <ItemDef DataType="text"
                  Length="80"
                  Name="EPOCH"
                  OID="CM.EPOCH"
                  SASFieldName="EPOCH">
            <Description>
               <TranslatedText xml:lang="en">Epoch</TranslatedText>
            </Description>
            <CodeListRef CodeListOID="CL.C99079.EPOCH"/>
         </ItemDef>
         <ItemDef DataType="datetime"
                  Name="CMSTDTC"
                  OID="CM.CMSTDTC"
                  SASFieldName="CMSTDTC">
            <Description>
               <TranslatedText xml:lang="en">Start Date/Time of Medication</TranslatedText>
            </Description>
            <def:Origin Type="Collected">
               <def:DocumentRef leafID="LF.aCRF">
                  <def:PDFPageRef PageRefs="74 77 100 104" Type="PhysicalRef"/>
               </def:DocumentRef>
            </def:Origin>
         </ItemDef>
         <ItemDef DataType="datetime"
                  Name="CMENDTC"
                  OID="CM.CMENDTC"
                  SASFieldName="CMENDTC">
            <Description>
               <TranslatedText xml:lang="en">End Date/Time of Medication</TranslatedText>
            </Description>
            <def:Origin Type="Collected">
               <def:DocumentRef leafID="LF.aCRF">
                  <def:PDFPageRef PageRefs="100 104" Type="PhysicalRef"/>
               </def:DocumentRef>
            </def:Origin>
         </ItemDef>
         <ItemDef DataType="integer"
                  Length="80"
                  Name="CMSTDY"
                  OID="CM.CMSTDY"
                  SASFieldName="CMSTDY">
            <Description>
               <TranslatedText xml:lang="en">Study Day of Start of Medication</TranslatedText>
            </Description>
         </ItemDef>
         <ItemDef DataType="integer"
                  Length="80"
                  Name="CMENDY"
                  OID="CM.CMENDY"
                  SASFieldName="CMENDY">
            <Description>
               <TranslatedText xml:lang="en">Study Day of End of Medication</TranslatedText>
            </Description>
         </ItemDef>
         <ItemDef DataType="durationDatetime"
                  Name="CMDUR"
                  OID="CM.CMDUR"
                  SASFieldName="CMDUR">
            <Description>
               <TranslatedText xml:lang="en">Duration</TranslatedText>
            </Description>
         </ItemDef>
         <ItemDef DataType="text"
                  Length="80"
                  Name="CMSTRF"
                  OID="CM.CMSTRF"
                  SASFieldName="CMSTRF">
            <Description>
               <TranslatedText xml:lang="en">Start Relative to Reference Period</TranslatedText>
            </Description>
            <CodeListRef CodeListOID="CL.C66728.STENRF"/>
         </ItemDef>
         <ItemDef DataType="text"
                  Length="80"
                  Name="CMENRF"
                  OID="CM.CMENRF"
                  SASFieldName="CMENRF">
            <Description>
               <TranslatedText xml:lang="en">End Relative to Reference Period</TranslatedText>
            </Description>
            <CodeListRef CodeListOID="CL.C66728.STENRF"/>
         </ItemDef>
         <ItemDef DataType="text"
                  Length="80"
                  Name="CMSTRTPT"
                  OID="CM.CMSTRTPT"
                  SASFieldName="CMSTRTPT">
            <Description>
               <TranslatedText xml:lang="en">Start Relative to Reference Time Point</TranslatedText>
            </Description>
            <CodeListRef CodeListOID="CL.C66728.STENRF.FORTPT"/>
         </ItemDef>
         <ItemDef DataType="text"
                  Length="80"
                  Name="CMSTTPT"
                  OID="CM.CMSTTPT"
                  SASFieldName="CMSTTPT">
            <Description>
               <TranslatedText xml:lang="en">Start Reference Time Point</TranslatedText>
            </Description>
         </ItemDef>
         <ItemDef DataType="text"
                  Length="80"
                  Name="CMENRTPT"
                  OID="CM.CMENRTPT"
                  SASFieldName="CMENRTPT">
            <Description>
               <TranslatedText xml:lang="en">End Relative to Reference Time Point</TranslatedText>
            </Description>
            <CodeListRef CodeListOID="CL.C66728.STENRF.FORTPT"/>
            <def:Origin Type="Collected">
               <def:DocumentRef leafID="LF.aCRF">
                  <def:PDFPageRef PageRefs="100 104" Type="PhysicalRef"/>
               </def:DocumentRef>
            </def:Origin>
         </ItemDef>
         <ItemDef DataType="text"
                  Length="80"
                  Name="CMENTPT"
                  OID="CM.CMENTPT"
                  SASFieldName="CMENTPT">
            <Description>
               <TranslatedText xml:lang="en">End Reference Time Point</TranslatedText>
            </Description>
         </ItemDef>
         <ItemDef DataType="integer"
                  Length="80"
                  Name="EXSEQ"
                  OID="EX.EXSEQ"
                  SASFieldName="EXSEQ">
            <Description>
               <TranslatedText xml:lang="en">Sequence Number</TranslatedText>
            </Description>
            <def:Origin Source="Sponsor" Type="Derived"/>
         </ItemDef>
         <ItemDef DataType="text"
                  Length="80"
                  Name="EXGRPID"
                  OID="EX.EXGRPID"
                  SASFieldName="EXGRPID">
            <Description>
               <TranslatedText xml:lang="en">Group ID</TranslatedText>
            </Description>
         </ItemDef>
         <ItemDef DataType="text"
                  Length="80"
                  Name="EXREFID"
                  OID="EX.EXREFID"
                  SASFieldName="EXREFID">
            <Description>
               <TranslatedText xml:lang="en">Reference ID</TranslatedText>
            </Description>
         </ItemDef>
         <ItemDef DataType="text"
                  Length="80"
                  Name="EXSPID"
                  OID="EX.EXSPID"
                  SASFieldName="EXSPID">
            <Description>
               <TranslatedText xml:lang="en">Sponsor-Defined Identifier</TranslatedText>
            </Description>
         </ItemDef>
         <ItemDef DataType="text"
                  Length="80"
                  Name="EXLNKID"
                  OID="EX.EXLNKID"
                  SASFieldName="EXLNKID">
            <Description>
               <TranslatedText xml:lang="en">Link ID</TranslatedText>
            </Description>
         </ItemDef>
         <ItemDef DataType="text"
                  Length="80"
                  Name="EXLNKGRP"
                  OID="EX.EXLNKGRP"
                  SASFieldName="EXLNKGRP">
            <Description>
               <TranslatedText xml:lang="en">Link Group ID</TranslatedText>
            </Description>
         </ItemDef>
         <ItemDef DataType="text"
                  Length="80"
                  Name="EXTRT"
                  OID="EX.EXTRT"
                  SASFieldName="EXTRT">
            <Description>
               <TranslatedText xml:lang="en">Name of Treatment</TranslatedText>
            </Description>
         </ItemDef>
         <ItemDef DataType="text"
                  Length="80"
                  Name="EXCAT"
                  OID="EX.EXCAT"
                  SASFieldName="EXCAT">
            <Description>
               <TranslatedText xml:lang="en">Category of Treatment</TranslatedText>
            </Description>
         </ItemDef>
         <ItemDef DataType="text"
                  Length="80"
                  Name="EXSCAT"
                  OID="EX.EXSCAT"
                  SASFieldName="EXSCAT">
            <Description>
               <TranslatedText xml:lang="en">Subcategory of Treatment</TranslatedText>
            </Description>
         </ItemDef>
         <ItemDef DataType="integer"
                  Length="80"
                  Name="EXDOSE"
                  OID="EX.EXDOSE"
                  SASFieldName="EXDOSE">
            <Description>
               <TranslatedText xml:lang="en">Dose</TranslatedText>
            </Description>
         </ItemDef>
         <ItemDef DataType="text"
                  Length="80"
                  Name="EXDOSTXT"
                  OID="EX.EXDOSTXT"
                  SASFieldName="EXDOSTXT">
            <Description>
               <TranslatedText xml:lang="en">Dose Description</TranslatedText>
            </Description>
         </ItemDef>
         <ItemDef DataType="text"
                  Length="80"
                  Name="EXDOSU"
                  OID="EX.EXDOSU"
                  SASFieldName="EXDOSU">
            <Description>
               <TranslatedText xml:lang="en">Dose Units</TranslatedText>
            </Description>
            <CodeListRef CodeListOID="CM4620-203:CL.cDOSEUNIT.SUBSET"/>
         </ItemDef>
         <ItemDef DataType="text"
                  Length="80"
                  Name="EXDOSFRM"
                  OID="EX.EXDOSFRM"
                  SASFieldName="EXDOSFRM">
            <Description>
               <TranslatedText xml:lang="en">Dose Form</TranslatedText>
            </Description>
            <CodeListRef CodeListOID="CL.C66726.FRM.SUBSET"/>
         </ItemDef>
         <ItemDef DataType="text"
                  Length="80"
                  Name="EXDOSFRQ"
                  OID="EX.EXDOSFRQ"
                  SASFieldName="EXDOSFRQ">
            <Description>
               <TranslatedText xml:lang="en">Dosing Frequency per Interval</TranslatedText>
            </Description>
            <CodeListRef CodeListOID="CL.C71113.FREQ"/>
         </ItemDef>
         <ItemDef DataType="text"
                  Length="80"
                  Name="EXDOSRGM"
                  OID="EX.EXDOSRGM"
                  SASFieldName="EXDOSRGM">
            <Description>
               <TranslatedText xml:lang="en">Intended Dose Regimen</TranslatedText>
            </Description>
         </ItemDef>
         <ItemDef DataType="text"
                  Length="80"
                  Name="EXROUTE"
                  OID="EX.EXROUTE"
                  SASFieldName="EXROUTE">
            <Description>
               <TranslatedText xml:lang="en">Route of Administration</TranslatedText>
            </Description>
            <CodeListRef CodeListOID="CL.C66729.ROUTE"/>
         </ItemDef>
         <ItemDef DataType="text"
                  Length="80"
                  Name="EXLOT"
                  OID="EX.EXLOT"
                  SASFieldName="EXLOT">
            <Description>
               <TranslatedText xml:lang="en">Lot Number</TranslatedText>
            </Description>
         </ItemDef>
         <ItemDef DataType="text"
                  Length="80"
                  Name="EXLOC"
                  OID="EX.EXLOC"
                  SASFieldName="EXLOC">
            <Description>
               <TranslatedText xml:lang="en">Location of Dose Administration</TranslatedText>
            </Description>
            <CodeListRef CodeListOID="CL.C74456.LOC"/>
         </ItemDef>
         <ItemDef DataType="text"
                  Length="80"
                  Name="EXLAT"
                  OID="EX.EXLAT"
                  SASFieldName="EXLAT">
            <Description>
               <TranslatedText xml:lang="en">Laterality</TranslatedText>
            </Description>
            <CodeListRef CodeListOID="CL.C99073.LAT"/>
         </ItemDef>
         <ItemDef DataType="text"
                  Length="80"
                  Name="EXDIR"
                  OID="EX.EXDIR"
                  SASFieldName="EXDIR">
            <Description>
               <TranslatedText xml:lang="en">Directionality</TranslatedText>
            </Description>
            <CodeListRef CodeListOID="CL.C99074.DIR"/>
         </ItemDef>
         <ItemDef DataType="text"
                  Length="2"
                  Name="EXFAST"
                  OID="EX.EXFAST"
                  SASFieldName="EXFAST">
            <Description>
               <TranslatedText xml:lang="en">Fasting Status</TranslatedText>
            </Description>
            <CodeListRef CodeListOID="CL.C66742.NY"/>
         </ItemDef>
         <ItemDef DataType="text"
                  Length="80"
                  Name="EXADJ"
                  OID="EX.EXADJ"
                  SASFieldName="EXADJ">
            <Description>
               <TranslatedText xml:lang="en">Reason for Dose Adjustment</TranslatedText>
            </Description>
         </ItemDef>
         <ItemDef DataType="integer"
                  Length="8"
                  Name="TAETORD"
                  OID="EX.TAETORD"
                  SASFieldName="TAETORD">
            <Description>
               <TranslatedText xml:lang="en">Planned Order of Element within Arm</TranslatedText>
            </Description>
         </ItemDef>
         <ItemDef DataType="text"
                  Length="80"
                  Name="EPOCH"
                  OID="EX.EPOCH"
                  SASFieldName="EPOCH">
            <Description>
               <TranslatedText xml:lang="en">Epoch</TranslatedText>
            </Description>
            <CodeListRef CodeListOID="CL.C99079.EPOCH"/>
         </ItemDef>
         <ItemDef DataType="datetime"
                  Name="EXSTDTC"
                  OID="EX.EXSTDTC"
                  SASFieldName="EXSTDTC">
            <Description>
               <TranslatedText xml:lang="en">Start Date/Time of Treatment</TranslatedText>
            </Description>
            <def:Origin Type="Collected">
               <def:DocumentRef leafID="LF.aCRF">
                  <def:PDFPageRef PageRefs="65" Type="PhysicalRef"/>
               </def:DocumentRef>
            </def:Origin>
         </ItemDef>
         <ItemDef DataType="datetime"
                  Name="EXENDTC"
                  OID="EX.EXENDTC"
                  SASFieldName="EXENDTC">
            <Description>
               <TranslatedText xml:lang="en">End Date/Time of Treatment</TranslatedText>
            </Description>
            <def:Origin Type="Collected">
               <def:DocumentRef leafID="LF.aCRF">
                  <def:PDFPageRef PageRefs="65" Type="PhysicalRef"/>
               </def:DocumentRef>
            </def:Origin>
         </ItemDef>
         <ItemDef DataType="integer"
                  Length="80"
                  Name="EXSTDY"
                  OID="EX.EXSTDY"
                  SASFieldName="EXSTDY">
            <Description>
               <TranslatedText xml:lang="en">Study Day of Start of Treatment</TranslatedText>
            </Description>
         </ItemDef>
         <ItemDef DataType="integer"
                  Length="80"
                  Name="EXENDY"
                  OID="EX.EXENDY"
                  SASFieldName="EXENDY">
            <Description>
               <TranslatedText xml:lang="en">Study Day of End of Treatment</TranslatedText>
            </Description>
         </ItemDef>
         <ItemDef DataType="durationDatetime"
                  Name="EXDUR"
                  OID="EX.EXDUR"
                  SASFieldName="EXDUR">
            <Description>
               <TranslatedText xml:lang="en">Duration of Treatment</TranslatedText>
            </Description>
         </ItemDef>
         <ItemDef DataType="text"
                  Length="80"
                  Name="EXTPT"
                  OID="EX.EXTPT"
                  SASFieldName="EXTPT">
            <Description>
               <TranslatedText xml:lang="en">Planned Time Point Name</TranslatedText>
            </Description>
         </ItemDef>
         <ItemDef DataType="integer"
                  Length="80"
                  Name="EXTPTNUM"
                  OID="EX.EXTPTNUM"
                  SASFieldName="EXTPTNUM">
            <Description>
               <TranslatedText xml:lang="en">Planned Time Point Number</TranslatedText>
            </Description>
         </ItemDef>
         <ItemDef DataType="text"
                  Length="80"
                  Name="EXELTM"
                  OID="EX.EXELTM"
                  SASFieldName="EXELTM">
            <Description>
               <TranslatedText xml:lang="en">Planned Elapsed Time from Time Point Ref</TranslatedText>
            </Description>
         </ItemDef>
         <ItemDef DataType="text"
                  Length="80"
                  Name="EXTPTREF"
                  OID="EX.EXTPTREF"
                  SASFieldName="EXTPTREF">
            <Description>
               <TranslatedText xml:lang="en">Time Point Reference</TranslatedText>
            </Description>
         </ItemDef>
         <ItemDef DataType="datetime"
                  Name="EXRFTDTC"
                  OID="EX.EXRFTDTC"
                  SASFieldName="EXRFTDTC">
            <Description>
               <TranslatedText xml:lang="en">Date/Time of Reference Time Point</TranslatedText>
            </Description>
         </ItemDef>
         <ItemDef DataType="integer"
                  Length="80"
                  Name="ECSEQ"
                  OID="EC.ECSEQ"
                  SASFieldName="ECSEQ">
            <Description>
               <TranslatedText xml:lang="en">Sequence Number</TranslatedText>
            </Description>
         </ItemDef>
         <ItemDef DataType="text"
                  Length="80"
                  Name="ECGRPID"
                  OID="EC.ECGRPID"
                  SASFieldName="ECGRPID">
            <Description>
               <TranslatedText xml:lang="en">Group ID</TranslatedText>
            </Description>
         </ItemDef>
         <ItemDef DataType="text"
                  Length="80"
                  Name="ECREFID"
                  OID="EC.ECREFID"
                  SASFieldName="ECREFID">
            <Description>
               <TranslatedText xml:lang="en">Reference ID</TranslatedText>
            </Description>
         </ItemDef>
         <ItemDef DataType="text"
                  Length="80"
                  Name="ECSPID"
                  OID="EC.ECSPID"
                  SASFieldName="ECSPID">
            <Description>
               <TranslatedText xml:lang="en">Sponsor-Defined Identifier</TranslatedText>
            </Description>
         </ItemDef>
         <ItemDef DataType="text"
                  Length="80"
                  Name="ECLNKID"
                  OID="EC.ECLNKID"
                  SASFieldName="ECLNKID">
            <Description>
               <TranslatedText xml:lang="en">Link ID</TranslatedText>
            </Description>
         </ItemDef>
         <ItemDef DataType="text"
                  Length="80"
                  Name="ECLNKGRP"
                  OID="EC.ECLNKGRP"
                  SASFieldName="ECLNKGRP">
            <Description>
               <TranslatedText xml:lang="en">Link Group ID</TranslatedText>
            </Description>
         </ItemDef>
         <ItemDef DataType="text"
                  Length="80"
                  Name="ECTRT"
                  OID="EC.ECTRT"
                  SASFieldName="ECTRT">
            <Description>
               <TranslatedText xml:lang="en">Name of Treatment</TranslatedText>
            </Description>
         </ItemDef>
         <ItemDef DataType="text"
                  Length="80"
                  Name="ECMOOD"
                  OID="EC.ECMOOD"
                  SASFieldName="ECMOOD">
            <Description>
               <TranslatedText xml:lang="en">Mood</TranslatedText>
            </Description>
            <CodeListRef CodeListOID="CL.C125923.BRDGMOOD"/>
         </ItemDef>
         <ItemDef DataType="text"
                  Length="80"
                  Name="ECCAT"
                  OID="EC.ECCAT"
                  SASFieldName="ECCAT">
            <Description>
               <TranslatedText xml:lang="en">Category of Treatment</TranslatedText>
            </Description>
         </ItemDef>
         <ItemDef DataType="text"
                  Length="80"
                  Name="ECSCAT"
                  OID="EC.ECSCAT"
                  SASFieldName="ECSCAT">
            <Description>
               <TranslatedText xml:lang="en">Subcategory of Treatment</TranslatedText>
            </Description>
         </ItemDef>
         <ItemDef DataType="text"
                  Length="2"
                  Name="ECPRESP"
                  OID="EC.ECPRESP"
                  SASFieldName="ECPRESP">
            <Description>
               <TranslatedText xml:lang="en">Pre-Specified</TranslatedText>
            </Description>
            <CodeListRef CodeListOID="CL.C66742.NY"/>
         </ItemDef>
         <ItemDef DataType="text"
                  Length="2"
                  Name="ECOCCUR"
                  OID="EC.ECOCCUR"
                  SASFieldName="ECOCCUR">
            <Description>
               <TranslatedText xml:lang="en">Occurrence</TranslatedText>
            </Description>
            <CodeListRef CodeListOID="CL.C66742.NY"/>
         </ItemDef>
         <ItemDef DataType="integer"
                  Length="80"
                  Name="ECDOSE"
                  OID="EC.ECDOSE"
                  SASFieldName="ECDOSE">
            <Description>
               <TranslatedText xml:lang="en">Dose</TranslatedText>
            </Description>
         </ItemDef>
         <ItemDef DataType="text"
                  Length="80"
                  Name="ECDOSTXT"
                  OID="EC.ECDOSTXT"
                  SASFieldName="ECDOSTXT">
            <Description>
               <TranslatedText xml:lang="en">Dose Description</TranslatedText>
            </Description>
         </ItemDef>
         <ItemDef DataType="text"
                  Length="80"
                  Name="ECDOSU"
                  OID="EC.ECDOSU"
                  SASFieldName="ECDOSU">
            <Description>
               <TranslatedText xml:lang="en">Dose Units</TranslatedText>
            </Description>
            <CodeListRef CodeListOID="CL.C71620.UNIT"/>
         </ItemDef>
         <ItemDef DataType="text"
                  Length="80"
                  Name="ECDOSFRM"
                  OID="EC.ECDOSFRM"
                  SASFieldName="ECDOSFRM">
            <Description>
               <TranslatedText xml:lang="en">Dose Form</TranslatedText>
            </Description>
            <CodeListRef CodeListOID="CL.C66726.FRM"/>
         </ItemDef>
         <ItemDef DataType="text"
                  Length="80"
                  Name="ECDOSFRQ"
                  OID="EC.ECDOSFRQ"
                  SASFieldName="ECDOSFRQ">
            <Description>
               <TranslatedText xml:lang="en">Dosing Frequency per Interval</TranslatedText>
            </Description>
            <CodeListRef CodeListOID="CL.C71113.FREQ"/>
         </ItemDef>
         <ItemDef DataType="integer"
                  Length="80"
                  Name="ECDOSTOT"
                  OID="EC.ECDOSTOT"
                  SASFieldName="ECDOSTOT">
            <Description>
               <TranslatedText xml:lang="en">Total Daily Dose</TranslatedText>
            </Description>
         </ItemDef>
         <ItemDef DataType="text"
                  Length="80"
                  Name="ECDOSRGM"
                  OID="EC.ECDOSRGM"
                  SASFieldName="ECDOSRGM">
            <Description>
               <TranslatedText xml:lang="en">Intended Dose Regimen</TranslatedText>
            </Description>
         </ItemDef>
         <ItemDef DataType="text"
                  Length="80"
                  Name="ECROUTE"
                  OID="EC.ECROUTE"
                  SASFieldName="ECROUTE">
            <Description>
               <TranslatedText xml:lang="en">Route of Administration</TranslatedText>
            </Description>
            <CodeListRef CodeListOID="CL.C66729.ROUTE"/>
         </ItemDef>
         <ItemDef DataType="text"
                  Length="80"
                  Name="ECLOT"
                  OID="EC.ECLOT"
                  SASFieldName="ECLOT">
            <Description>
               <TranslatedText xml:lang="en">Lot Number</TranslatedText>
            </Description>
         </ItemDef>
         <ItemDef DataType="text"
                  Length="80"
                  Name="ECLOC"
                  OID="EC.ECLOC"
                  SASFieldName="ECLOC">
            <Description>
               <TranslatedText xml:lang="en">Location of Dose Administration</TranslatedText>
            </Description>
            <CodeListRef CodeListOID="CL.C74456.LOC"/>
         </ItemDef>
         <ItemDef DataType="text"
                  Length="80"
                  Name="ECLAT"
                  OID="EC.ECLAT"
                  SASFieldName="ECLAT">
            <Description>
               <TranslatedText xml:lang="en">Laterality</TranslatedText>
            </Description>
            <CodeListRef CodeListOID="CL.C99073.LAT"/>
         </ItemDef>
         <ItemDef DataType="text"
                  Length="80"
                  Name="ECDIR"
                  OID="EC.ECDIR"
                  SASFieldName="ECDIR">
            <Description>
               <TranslatedText xml:lang="en">Directionality</TranslatedText>
            </Description>
            <CodeListRef CodeListOID="CL.C99074.DIR"/>
         </ItemDef>
         <ItemDef DataType="text"
                  Length="80"
                  Name="ECPORTOT"
                  OID="EC.ECPORTOT"
                  SASFieldName="ECPORTOT">
            <Description>
               <TranslatedText xml:lang="en">Portion or Totality</TranslatedText>
            </Description>
            <CodeListRef CodeListOID="CL.C99075.PORTOT"/>
         </ItemDef>
         <ItemDef DataType="text"
                  Length="2"
                  Name="ECFAST"
                  OID="EC.ECFAST"
                  SASFieldName="ECFAST">
            <Description>
               <TranslatedText xml:lang="en">Fasting Status</TranslatedText>
            </Description>
            <CodeListRef CodeListOID="CL.C66742.NY"/>
         </ItemDef>
         <ItemDef DataType="integer"
                  Length="80"
                  Name="ECPSTRG"
                  OID="EC.ECPSTRG"
                  SASFieldName="ECPSTRG">
            <Description>
               <TranslatedText xml:lang="en">Pharmaceutical Strength</TranslatedText>
            </Description>
         </ItemDef>
         <ItemDef DataType="text"
                  Length="80"
                  Name="ECPSTRGU"
                  OID="EC.ECPSTRGU"
                  SASFieldName="ECPSTRGU">
            <Description>
               <TranslatedText xml:lang="en">Pharmaceutical Strength Units</TranslatedText>
            </Description>
         </ItemDef>
         <ItemDef DataType="text"
                  Length="80"
                  Name="ECADJ"
                  OID="EC.ECADJ"
                  SASFieldName="ECADJ">
            <Description>
               <TranslatedText xml:lang="en">Reason for Dose Adjustment</TranslatedText>
            </Description>
         </ItemDef>
         <ItemDef DataType="integer"
                  Length="8"
                  Name="TAETORD"
                  OID="EC.TAETORD"
                  SASFieldName="TAETORD">
            <Description>
               <TranslatedText xml:lang="en">Planned Order of Element within Arm</TranslatedText>
            </Description>
         </ItemDef>
         <ItemDef DataType="text"
                  Length="80"
                  Name="EPOCH"
                  OID="EC.EPOCH"
                  SASFieldName="EPOCH">
            <Description>
               <TranslatedText xml:lang="en">Epoch</TranslatedText>
            </Description>
            <CodeListRef CodeListOID="CL.C99079.EPOCH"/>
         </ItemDef>
         <ItemDef DataType="datetime"
                  Name="ECSTDTC"
                  OID="EC.ECSTDTC"
                  SASFieldName="ECSTDTC">
            <Description>
               <TranslatedText xml:lang="en">Start Date/Time of Treatment</TranslatedText>
            </Description>
         </ItemDef>
         <ItemDef DataType="datetime"
                  Name="ECENDTC"
                  OID="EC.ECENDTC"
                  SASFieldName="ECENDTC">
            <Description>
               <TranslatedText xml:lang="en">End Date/Time of Treatment</TranslatedText>
            </Description>
         </ItemDef>
         <ItemDef DataType="integer"
                  Length="80"
                  Name="ECSTDY"
                  OID="EC.ECSTDY"
                  SASFieldName="ECSTDY">
            <Description>
               <TranslatedText xml:lang="en">Study Day of Start of Treatment</TranslatedText>
            </Description>
         </ItemDef>
         <ItemDef DataType="integer"
                  Length="80"
                  Name="ECENDY"
                  OID="EC.ECENDY"
                  SASFieldName="ECENDY">
            <Description>
               <TranslatedText xml:lang="en">Study Day of End of Treatment</TranslatedText>
            </Description>
         </ItemDef>
         <ItemDef DataType="durationDatetime"
                  Name="ECDUR"
                  OID="EC.ECDUR"
                  SASFieldName="ECDUR">
            <Description>
               <TranslatedText xml:lang="en">Duration of Treatment</TranslatedText>
            </Description>
         </ItemDef>
         <ItemDef DataType="text"
                  Length="80"
                  Name="ECTPT"
                  OID="EC.ECTPT"
                  SASFieldName="ECTPT">
            <Description>
               <TranslatedText xml:lang="en">Planned Time Point Name</TranslatedText>
            </Description>
         </ItemDef>
         <ItemDef DataType="integer"
                  Length="80"
                  Name="ECTPTNUM"
                  OID="EC.ECTPTNUM"
                  SASFieldName="ECTPTNUM">
            <Description>
               <TranslatedText xml:lang="en">Planned Time Point Number</TranslatedText>
            </Description>
         </ItemDef>
         <ItemDef DataType="text"
                  Length="80"
                  Name="ECELTM"
                  OID="EC.ECELTM"
                  SASFieldName="ECELTM">
            <Description>
               <TranslatedText xml:lang="en">Planned Elapsed Time from Time Point Ref</TranslatedText>
            </Description>
         </ItemDef>
         <ItemDef DataType="text"
                  Length="80"
                  Name="ECTPTREF"
                  OID="EC.ECTPTREF"
                  SASFieldName="ECTPTREF">
            <Description>
               <TranslatedText xml:lang="en">Time Point Reference</TranslatedText>
            </Description>
         </ItemDef>
         <ItemDef DataType="datetime"
                  Name="ECRFTDTC"
                  OID="EC.ECRFTDTC"
                  SASFieldName="ECRFTDTC">
            <Description>
               <TranslatedText xml:lang="en">Date/Time of Reference Time Point</TranslatedText>
            </Description>
         </ItemDef>
         <ItemDef DataType="integer"
                  Length="80"
                  Name="MLSEQ"
                  OID="ML.MLSEQ"
                  SASFieldName="MLSEQ">
            <Description>
               <TranslatedText xml:lang="en">Sequence Number</TranslatedText>
            </Description>
            <def:Origin Source="Sponsor" Type="Derived"/>
         </ItemDef>
         <ItemDef DataType="text"
                  Length="80"
                  Name="MLGRPID"
                  OID="ML.MLGRPID"
                  SASFieldName="MLGRPID">
            <Description>
               <TranslatedText xml:lang="en">Group ID</TranslatedText>
            </Description>
         </ItemDef>
         <ItemDef DataType="text"
                  Length="80"
                  Name="MLSPID"
                  OID="ML.MLSPID"
                  SASFieldName="MLSPID">
            <Description>
               <TranslatedText xml:lang="en">Sponsor-Defined Identifier</TranslatedText>
            </Description>
         </ItemDef>
         <ItemDef DataType="text"
                  Length="80"
                  Name="MLTRT"
                  OID="ML.MLTRT"
                  SASFieldName="MLTRT">
            <Description>
               <TranslatedText xml:lang="en">Name of Meal</TranslatedText>
            </Description>
            <def:Origin Source="Vendor" Type="Assigned"/>
         </ItemDef>
         <ItemDef DataType="text"
                  Length="80"
                  Name="MLCAT"
                  OID="ML.MLCAT"
                  SASFieldName="MLCAT">
            <Description>
               <TranslatedText xml:lang="en">Category for Meal</TranslatedText>
            </Description>
         </ItemDef>
         <ItemDef DataType="text"
                  Length="80"
                  Name="MLSCAT"
                  OID="ML.MLSCAT"
                  SASFieldName="MLSCAT">
            <Description>
               <TranslatedText xml:lang="en">Subcategory for Meal</TranslatedText>
            </Description>
         </ItemDef>
         <ItemDef DataType="text"
                  Length="2"
                  Name="MLPRESP"
                  OID="ML.MLPRESP"
                  SASFieldName="MLPRESP">
            <Description>
               <TranslatedText xml:lang="en">ML Pre-specified</TranslatedText>
            </Description>
            <CodeListRef CodeListOID="CL.C66742.NY"/>
         </ItemDef>
         <ItemDef DataType="text"
                  Length="2"
                  Name="MLOCCUR"
                  OID="ML.MLOCCUR"
                  SASFieldName="MLOCCUR">
            <Description>
               <TranslatedText xml:lang="en">ML Occurrence</TranslatedText>
            </Description>
            <CodeListRef CodeListOID="CL.C66742.NY"/>
         </ItemDef>
         <ItemDef DataType="text"
                  Length="80"
                  Name="MLSTAT"
                  OID="ML.MLSTAT"
                  SASFieldName="MLSTAT">
            <Description>
               <TranslatedText xml:lang="en">Completion Status</TranslatedText>
            </Description>
            <CodeListRef CodeListOID="CL.C66789.ND"/>
         </ItemDef>
         <ItemDef DataType="text"
                  Length="80"
                  Name="MLREASND"
                  OID="ML.MLREASND"
                  SASFieldName="MLREASND">
            <Description>
               <TranslatedText xml:lang="en">Reason Meal Not Collected</TranslatedText>
            </Description>
         </ItemDef>
         <ItemDef DataType="integer"
                  Length="80"
                  Name="MLDOSE"
                  OID="ML.MLDOSE"
                  SASFieldName="MLDOSE">
            <Description>
               <TranslatedText xml:lang="en">Dose</TranslatedText>
            </Description>
         </ItemDef>
         <ItemDef DataType="text"
                  Length="80"
                  Name="MLDOSTXT"
                  OID="ML.MLDOSTXT"
                  SASFieldName="MLDOSTXT">
            <Description>
               <TranslatedText xml:lang="en">Dose Description</TranslatedText>
            </Description>
            <def:Origin Type="Collected">
               <def:DocumentRef leafID="LF.aCRF">
                  <def:PDFPageRef PageRefs="71" Type="PhysicalRef"/>
               </def:DocumentRef>
            </def:Origin>
         </ItemDef>
         <ItemDef DataType="text"
                  Length="80"
                  Name="MLDOSU"
                  OID="ML.MLDOSU"
                  SASFieldName="MLDOSU">
            <Description>
               <TranslatedText xml:lang="en">Dose Units</TranslatedText>
            </Description>
            <CodeListRef CodeListOID="CL.C71620.UNIT"/>
         </ItemDef>
         <ItemDef DataType="text"
                  Length="80"
                  Name="MLDOSFRM"
                  OID="ML.MLDOSFRM"
                  SASFieldName="MLDOSFRM">
            <Description>
               <TranslatedText xml:lang="en">Dose Form</TranslatedText>
            </Description>
            <CodeListRef CodeListOID="CL.C66726.FRM"/>
         </ItemDef>
         <ItemDef DataType="integer"
                  Length="80"
                  Name="VISITNUM"
                  OID="ML.VISITNUM"
                  SASFieldName="VISITNUM">
            <Description>
               <TranslatedText xml:lang="en">Visit Number</TranslatedText>
            </Description>
         </ItemDef>
         <ItemDef DataType="text"
                  Length="80"
                  Name="VISIT"
                  OID="ML.VISIT"
                  SASFieldName="VISIT">
            <Description>
               <TranslatedText xml:lang="en">Visit Name</TranslatedText>
            </Description>
         </ItemDef>
         <ItemDef DataType="integer"
                  Length="80"
                  Name="VISITDY"
                  OID="ML.VISITDY"
                  SASFieldName="VISITDY">
            <Description>
               <TranslatedText xml:lang="en">Planned Study Day of Visit</TranslatedText>
            </Description>
         </ItemDef>
         <ItemDef DataType="integer"
                  Length="8"
                  Name="TAETORD"
                  OID="ML.TAETORD"
                  SASFieldName="TAETORD">
            <Description>
               <TranslatedText xml:lang="en">Planned Order of Element within Arm</TranslatedText>
            </Description>
         </ItemDef>
         <ItemDef DataType="text"
                  Length="80"
                  Name="EPOCH"
                  OID="ML.EPOCH"
                  SASFieldName="EPOCH">
            <Description>
               <TranslatedText xml:lang="en">Epoch</TranslatedText>
            </Description>
            <CodeListRef CodeListOID="CL.C99079.EPOCH"/>
         </ItemDef>
         <ItemDef DataType="datetime"
                  Name="MLDTC"
                  OID="ML.MLDTC"
                  SASFieldName="MLDTC">
            <Description>
               <TranslatedText xml:lang="en">Date/Time of Collection</TranslatedText>
            </Description>
         </ItemDef>
         <ItemDef DataType="datetime"
                  Name="MLSTDTC"
                  OID="ML.MLSTDTC"
                  SASFieldName="MLSTDTC">
            <Description>
               <TranslatedText xml:lang="en">Start Date/Time of Meal</TranslatedText>
            </Description>
            <def:Origin Type="Collected">
               <def:DocumentRef leafID="LF.aCRF">
                  <def:PDFPageRef PageRefs="70 71" Type="PhysicalRef"/>
               </def:DocumentRef>
            </def:Origin>
         </ItemDef>
         <ItemDef DataType="datetime"
                  Name="MLENDTC"
                  OID="ML.MLENDTC"
                  SASFieldName="MLENDTC">
            <Description>
               <TranslatedText xml:lang="en">End Date/Time of Meal</TranslatedText>
            </Description>
         </ItemDef>
         <ItemDef DataType="integer"
                  Length="80"
                  Name="MLDY"
                  OID="ML.MLDY"
                  SASFieldName="MLDY">
            <Description>
               <TranslatedText xml:lang="en">Study Day of Visit/Collection/Exam</TranslatedText>
            </Description>
         </ItemDef>
         <ItemDef DataType="integer"
                  Length="80"
                  Name="MLSTDY"
                  OID="ML.MLSTDY"
                  SASFieldName="MLSTDY">
            <Description>
               <TranslatedText xml:lang="en">Study Day of Start of Meal</TranslatedText>
            </Description>
         </ItemDef>
         <ItemDef DataType="integer"
                  Length="80"
                  Name="MLENDY"
                  OID="ML.MLENDY"
                  SASFieldName="MLENDY">
            <Description>
               <TranslatedText xml:lang="en">Study Day of End of Meal</TranslatedText>
            </Description>
         </ItemDef>
         <ItemDef DataType="durationDatetime"
                  Name="MLDUR"
                  OID="ML.MLDUR"
                  SASFieldName="MLDUR">
            <Description>
               <TranslatedText xml:lang="en">Duration of Meal</TranslatedText>
            </Description>
         </ItemDef>
         <ItemDef DataType="text"
                  Length="80"
                  Name="MLTPT"
                  OID="ML.MLTPT"
                  SASFieldName="MLTPT">
            <Description>
               <TranslatedText xml:lang="en">Planned Time Point Name</TranslatedText>
            </Description>
         </ItemDef>
         <ItemDef DataType="integer"
                  Length="80"
                  Name="MLTPTNUM"
                  OID="ML.MLTPTNUM"
                  SASFieldName="MLTPTNUM">
            <Description>
               <TranslatedText xml:lang="en">Planned Time Point Number</TranslatedText>
            </Description>
         </ItemDef>
         <ItemDef DataType="text"
                  Length="80"
                  Name="MLELTM"
                  OID="ML.MLELTM"
                  SASFieldName="MLELTM">
            <Description>
               <TranslatedText xml:lang="en">Planned Elapsed Time from Time Point Ref</TranslatedText>
            </Description>
         </ItemDef>
         <ItemDef DataType="text"
                  Length="80"
                  Name="MLTPTREF"
                  OID="ML.MLTPTREF"
                  SASFieldName="MLTPTREF">
            <Description>
               <TranslatedText xml:lang="en">Time Point Reference</TranslatedText>
            </Description>
         </ItemDef>
         <ItemDef DataType="datetime"
                  Name="MLRFTDTC"
                  OID="ML.MLRFTDTC"
                  SASFieldName="MLRFTDTC">
            <Description>
               <TranslatedText xml:lang="en">Date/Time of Reference Time Point</TranslatedText>
            </Description>
         </ItemDef>
         <ItemDef DataType="text"
                  Length="80"
                  Name="MIDS"
                  OID="ML.MIDS"
                  SASFieldName="MIDS">
            <Description>
               <TranslatedText xml:lang="en">Disease Milestone Instance Name</TranslatedText>
            </Description>
         </ItemDef>
         <ItemDef DataType="text"
                  Length="80"
                  Name="RELMIDS"
                  OID="ML.RELMIDS"
                  SASFieldName="RELMIDS">
            <Description>
               <TranslatedText xml:lang="en">Temporal Relation to Milestone Instance</TranslatedText>
            </Description>
         </ItemDef>
         <ItemDef DataType="datetime"
                  Name="MIDSDTC"
                  OID="ML.MIDSDTC"
                  SASFieldName="MIDSDTC">
            <Description>
               <TranslatedText xml:lang="en">Disease Milestone Instance Date/Time</TranslatedText>
            </Description>
         </ItemDef>
         <ItemDef DataType="integer"
                  Length="80"
                  Name="PRSEQ"
                  OID="PR.PRSEQ"
                  SASFieldName="PRSEQ">
            <Description>
               <TranslatedText xml:lang="en">Sequence Number</TranslatedText>
            </Description>
            <def:Origin Source="Sponsor" Type="Derived"/>
         </ItemDef>
         <ItemDef DataType="text"
                  Length="80"
                  Name="PRGRPID"
                  OID="PR.PRGRPID"
                  SASFieldName="PRGRPID">
            <Description>
               <TranslatedText xml:lang="en">Group ID</TranslatedText>
            </Description>
         </ItemDef>
         <ItemDef DataType="text"
                  Length="80"
                  Name="PRSPID"
                  OID="PR.PRSPID"
                  SASFieldName="PRSPID">
            <Description>
               <TranslatedText xml:lang="en">Sponsor-Defined Identifier</TranslatedText>
            </Description>
         </ItemDef>
         <ItemDef DataType="text"
                  Length="80"
                  Name="PRLNKID"
                  OID="PR.PRLNKID"
                  SASFieldName="PRLNKID">
            <Description>
               <TranslatedText xml:lang="en">Link ID</TranslatedText>
            </Description>
         </ItemDef>
         <ItemDef DataType="text"
                  Length="80"
                  Name="PRLNKGRP"
                  OID="PR.PRLNKGRP"
                  SASFieldName="PRLNKGRP">
            <Description>
               <TranslatedText xml:lang="en">Link Group ID</TranslatedText>
            </Description>
         </ItemDef>
         <ItemDef DataType="text"
                  Length="80"
                  Name="PRTRT"
                  OID="PR.PRTRT"
                  SASFieldName="PRTRT">
            <Description>
               <TranslatedText xml:lang="en">Reported Name of Procedure</TranslatedText>
            </Description>
            <def:Origin Type="Collected">
               <def:DocumentRef leafID="LF.aCRF">
                  <def:PDFPageRef PageRefs="79 80 86" Type="PhysicalRef"/>
               </def:DocumentRef>
            </def:Origin>
         </ItemDef>
         <ItemDef DataType="text"
                  Length="80"
                  Name="PRDECOD"
                  OID="PR.PRDECOD"
                  SASFieldName="PRDECOD">
            <Description>
               <TranslatedText xml:lang="en">Standardized Procedure Name</TranslatedText>
            </Description>
         </ItemDef>
         <ItemDef DataType="text"
                  Length="80"
                  Name="PRCAT"
                  OID="PR.PRCAT"
                  SASFieldName="PRCAT">
            <Description>
               <TranslatedText xml:lang="en">Category</TranslatedText>
            </Description>
            <def:Origin Type="Collected">
               <def:DocumentRef leafID="LF.aCRF">
                  <def:PDFPageRef PageRefs="79 86" Type="PhysicalRef"/>
               </def:DocumentRef>
            </def:Origin>
         </ItemDef>
         <ItemDef DataType="text"
                  Length="80"
                  Name="PRSCAT"
                  OID="PR.PRSCAT"
                  SASFieldName="PRSCAT">
            <Description>
               <TranslatedText xml:lang="en">Subcategory</TranslatedText>
            </Description>
         </ItemDef>
         <ItemDef DataType="text"
                  Length="2"
                  Name="PRPRESP"
                  OID="PR.PRPRESP"
                  SASFieldName="PRPRESP">
            <Description>
               <TranslatedText xml:lang="en">Pre-specified</TranslatedText>
            </Description>
            <CodeListRef CodeListOID="CL.C66742.NY"/>
         </ItemDef>
         <ItemDef DataType="text"
                  Length="2"
                  Name="PROCCUR"
                  OID="PR.PROCCUR"
                  SASFieldName="PROCCUR">
            <Description>
               <TranslatedText xml:lang="en">Occurrence</TranslatedText>
            </Description>
            <CodeListRef CodeListOID="CM4620-203:CL.cNYa"/>
            <def:Origin Type="Collected">
               <def:DocumentRef leafID="LF.aCRF">
                  <def:PDFPageRef PageRefs="79 80" Type="PhysicalRef"/>
               </def:DocumentRef>
            </def:Origin>
         </ItemDef>
         <ItemDef DataType="text"
                  Length="80"
                  Name="PRINDC"
                  OID="PR.PRINDC"
                  SASFieldName="PRINDC">
            <Description>
               <TranslatedText xml:lang="en">Indication</TranslatedText>
            </Description>
         </ItemDef>
         <ItemDef DataType="integer"
                  Length="80"
                  Name="PRDOSE"
                  OID="PR.PRDOSE"
                  SASFieldName="PRDOSE">
            <Description>
               <TranslatedText xml:lang="en">Dose</TranslatedText>
            </Description>
         </ItemDef>
         <ItemDef DataType="text"
                  Length="80"
                  Name="PRDOSTXT"
                  OID="PR.PRDOSTXT"
                  SASFieldName="PRDOSTXT">
            <Description>
               <TranslatedText xml:lang="en">Dose Description</TranslatedText>
            </Description>
         </ItemDef>
         <ItemDef DataType="text"
                  Length="80"
                  Name="PRDOSU"
                  OID="PR.PRDOSU"
                  SASFieldName="PRDOSU">
            <Description>
               <TranslatedText xml:lang="en">Dose Units</TranslatedText>
            </Description>
            <CodeListRef CodeListOID="CL.C71620.UNIT"/>
         </ItemDef>
         <ItemDef DataType="text"
                  Length="80"
                  Name="PRDOSFRM"
                  OID="PR.PRDOSFRM"
                  SASFieldName="PRDOSFRM">
            <Description>
               <TranslatedText xml:lang="en">Dose Form</TranslatedText>
            </Description>
            <CodeListRef CodeListOID="CL.C66726.FRM"/>
         </ItemDef>
         <ItemDef DataType="text"
                  Length="80"
                  Name="PRDOSFRQ"
                  OID="PR.PRDOSFRQ"
                  SASFieldName="PRDOSFRQ">
            <Description>
               <TranslatedText xml:lang="en">Dosing Frequency per Interval</TranslatedText>
            </Description>
            <CodeListRef CodeListOID="CL.C71113.FREQ"/>
         </ItemDef>
         <ItemDef DataType="text"
                  Length="80"
                  Name="PRDOSRGM"
                  OID="PR.PRDOSRGM"
                  SASFieldName="PRDOSRGM">
            <Description>
               <TranslatedText xml:lang="en">Intended Dose Regimen</TranslatedText>
            </Description>
         </ItemDef>
         <ItemDef DataType="text"
                  Length="80"
                  Name="PRROUTE"
                  OID="PR.PRROUTE"
                  SASFieldName="PRROUTE">
            <Description>
               <TranslatedText xml:lang="en">Route of Administration</TranslatedText>
            </Description>
            <CodeListRef CodeListOID="CL.C66729.ROUTE"/>
         </ItemDef>
         <ItemDef DataType="text"
                  Length="80"
                  Name="PRLOC"
                  OID="PR.PRLOC"
                  SASFieldName="PRLOC">
            <Description>
               <TranslatedText xml:lang="en">Location of Procedure</TranslatedText>
            </Description>
            <CodeListRef CodeListOID="CL.C74456.LOC"/>
         </ItemDef>
         <ItemDef DataType="text"
                  Length="80"
                  Name="PRLAT"
                  OID="PR.PRLAT"
                  SASFieldName="PRLAT">
            <Description>
               <TranslatedText xml:lang="en">Laterality</TranslatedText>
            </Description>
            <CodeListRef CodeListOID="CL.C99073.LAT"/>
         </ItemDef>
         <ItemDef DataType="text"
                  Length="80"
                  Name="PRDIR"
                  OID="PR.PRDIR"
                  SASFieldName="PRDIR">
            <Description>
               <TranslatedText xml:lang="en">Directionality</TranslatedText>
            </Description>
            <CodeListRef CodeListOID="CL.C99074.DIR"/>
         </ItemDef>
         <ItemDef DataType="text"
                  Length="80"
                  Name="PRPORTOT"
                  OID="PR.PRPORTOT"
                  SASFieldName="PRPORTOT">
            <Description>
               <TranslatedText xml:lang="en">Portion or Totality</TranslatedText>
            </Description>
            <CodeListRef CodeListOID="CL.C99075.PORTOT"/>
         </ItemDef>
         <ItemDef DataType="integer"
                  Length="80"
                  Name="VISITNUM"
                  OID="PR.VISITNUM"
                  SASFieldName="VISITNUM">
            <Description>
               <TranslatedText xml:lang="en">Visit Number</TranslatedText>
            </Description>
         </ItemDef>
         <ItemDef DataType="text"
                  Length="80"
                  Name="VISIT"
                  OID="PR.VISIT"
                  SASFieldName="VISIT">
            <Description>
               <TranslatedText xml:lang="en">Visit Name</TranslatedText>
            </Description>
         </ItemDef>
         <ItemDef DataType="integer"
                  Length="80"
                  Name="VISITDY"
                  OID="PR.VISITDY"
                  SASFieldName="VISITDY">
            <Description>
               <TranslatedText xml:lang="en">Planned Study Day of Visit</TranslatedText>
            </Description>
         </ItemDef>
         <ItemDef DataType="integer"
                  Length="8"
                  Name="TAETORD"
                  OID="PR.TAETORD"
                  SASFieldName="TAETORD">
            <Description>
               <TranslatedText xml:lang="en">Planned Order of Element within Arm</TranslatedText>
            </Description>
         </ItemDef>
         <ItemDef DataType="text"
                  Length="80"
                  Name="EPOCH"
                  OID="PR.EPOCH"
                  SASFieldName="EPOCH">
            <Description>
               <TranslatedText xml:lang="en">Epoch</TranslatedText>
            </Description>
            <CodeListRef CodeListOID="CL.C99079.EPOCH"/>
         </ItemDef>
         <ItemDef DataType="datetime"
                  Name="PRSTDTC"
                  OID="PR.PRSTDTC"
                  SASFieldName="PRSTDTC">
            <Description>
               <TranslatedText xml:lang="en">Start Date/Time of Procedure</TranslatedText>
            </Description>
            <def:Origin Type="Collected">
               <def:DocumentRef leafID="LF.aCRF">
                  <def:PDFPageRef PageRefs="86" Type="PhysicalRef"/>
               </def:DocumentRef>
            </def:Origin>
         </ItemDef>
         <ItemDef DataType="datetime"
                  Name="PRENDTC"
                  OID="PR.PRENDTC"
                  SASFieldName="PRENDTC">
            <Description>
               <TranslatedText xml:lang="en">End Date/Time of Procedure</TranslatedText>
            </Description>
         </ItemDef>
         <ItemDef DataType="integer"
                  Length="80"
                  Name="PRSTDY"
                  OID="PR.PRSTDY"
                  SASFieldName="PRSTDY">
            <Description>
               <TranslatedText xml:lang="en">Study Day of Start of Procedure</TranslatedText>
            </Description>
         </ItemDef>
         <ItemDef DataType="integer"
                  Length="80"
                  Name="PRENDY"
                  OID="PR.PRENDY"
                  SASFieldName="PRENDY">
            <Description>
               <TranslatedText xml:lang="en">Study Day of End of Procedure</TranslatedText>
            </Description>
         </ItemDef>
         <ItemDef DataType="durationDatetime"
                  Name="PRDUR"
                  OID="PR.PRDUR"
                  SASFieldName="PRDUR">
            <Description>
               <TranslatedText xml:lang="en">Duration of Procedure</TranslatedText>
            </Description>
         </ItemDef>
         <ItemDef DataType="text"
                  Length="80"
                  Name="PRTPT"
                  OID="PR.PRTPT"
                  SASFieldName="PRTPT">
            <Description>
               <TranslatedText xml:lang="en">Planned Time Point Name</TranslatedText>
            </Description>
            <def:Origin Type="Collected">
               <def:DocumentRef leafID="LF.aCRF">
                  <def:PDFPageRef PageRefs="86" Type="PhysicalRef"/>
               </def:DocumentRef>
            </def:Origin>
         </ItemDef>
         <ItemDef DataType="integer"
                  Length="80"
                  Name="PRTPTNUM"
                  OID="PR.PRTPTNUM"
                  SASFieldName="PRTPTNUM">
            <Description>
               <TranslatedText xml:lang="en">Planned Time Point Number</TranslatedText>
            </Description>
         </ItemDef>
         <ItemDef DataType="text"
                  Length="80"
                  Name="PRELTM"
                  OID="PR.PRELTM"
                  SASFieldName="PRELTM">
            <Description>
               <TranslatedText xml:lang="en">Planned Elapsed Time from Time Point Ref</TranslatedText>
            </Description>
         </ItemDef>
         <ItemDef DataType="text"
                  Length="80"
                  Name="PRTPTREF"
                  OID="PR.PRTPTREF"
                  SASFieldName="PRTPTREF">
            <Description>
               <TranslatedText xml:lang="en">Time Point Reference</TranslatedText>
            </Description>
         </ItemDef>
         <ItemDef DataType="datetime"
                  Name="PRRFTDTC"
                  OID="PR.PRRFTDTC"
                  SASFieldName="PRRFTDTC">
            <Description>
               <TranslatedText xml:lang="en">Date/Time of Reference Time Point</TranslatedText>
            </Description>
         </ItemDef>
         <ItemDef DataType="text"
                  Length="80"
                  Name="PRSTRTPT"
                  OID="PR.PRSTRTPT"
                  SASFieldName="PRSTRTPT">
            <Description>
               <TranslatedText xml:lang="en">Start Relative to Reference Time Point</TranslatedText>
            </Description>
            <CodeListRef CodeListOID="CL.C66728.STENRF.FORTPT"/>
         </ItemDef>
         <ItemDef DataType="text"
                  Length="80"
                  Name="PRSTTPT"
                  OID="PR.PRSTTPT"
                  SASFieldName="PRSTTPT">
            <Description>
               <TranslatedText xml:lang="en">Start Reference Time Point</TranslatedText>
            </Description>
         </ItemDef>
         <ItemDef DataType="text"
                  Length="80"
                  Name="PRENRTPT"
                  OID="PR.PRENRTPT"
                  SASFieldName="PRENRTPT">
            <Description>
               <TranslatedText xml:lang="en">End Relative to Reference Time Point</TranslatedText>
            </Description>
            <CodeListRef CodeListOID="CL.C66728.STENRF.FORTPT"/>
         </ItemDef>
         <ItemDef DataType="text"
                  Length="80"
                  Name="PRENTPT"
                  OID="PR.PRENTPT"
                  SASFieldName="PRENTPT">
            <Description>
               <TranslatedText xml:lang="en">End Reference Time Point</TranslatedText>
            </Description>
         </ItemDef>
         <ItemDef DataType="integer"
                  Length="80"
                  Name="SUSEQ"
                  OID="SU.SUSEQ"
                  SASFieldName="SUSEQ">
            <Description>
               <TranslatedText xml:lang="en">Sequence Number</TranslatedText>
            </Description>
            <def:Origin Source="Sponsor" Type="Derived"/>
         </ItemDef>
         <ItemDef DataType="text"
                  Length="80"
                  Name="SUGRPID"
                  OID="SU.SUGRPID"
                  SASFieldName="SUGRPID">
            <Description>
               <TranslatedText xml:lang="en">Group ID</TranslatedText>
            </Description>
         </ItemDef>
         <ItemDef DataType="text"
                  Length="80"
                  Name="SUSPID"
                  OID="SU.SUSPID"
                  SASFieldName="SUSPID">
            <Description>
               <TranslatedText xml:lang="en">Sponsor-Defined Identifier</TranslatedText>
            </Description>
         </ItemDef>
         <ItemDef DataType="text"
                  Length="80"
                  Name="SUTRT"
                  OID="SU.SUTRT"
                  SASFieldName="SUTRT">
            <Description>
               <TranslatedText xml:lang="en">Reported Name of Substance</TranslatedText>
            </Description>
            <def:Origin Source="Investigator" Type="Collected">
               <def:DocumentRef leafID="LF.aCRF">
                  <def:PDFPageRef PageRefs="20" Type="PhysicalRef"/>
               </def:DocumentRef>
            </def:Origin>
         </ItemDef>
         <ItemDef DataType="text"
                  Length="80"
                  Name="SUMODIFY"
                  OID="SU.SUMODIFY"
                  SASFieldName="SUMODIFY">
            <Description>
               <TranslatedText xml:lang="en">Modified Substance Name</TranslatedText>
            </Description>
         </ItemDef>
         <ItemDef DataType="text"
                  Length="80"
                  Name="SUDECOD"
                  OID="SU.SUDECOD"
                  SASFieldName="SUDECOD">
            <Description>
               <TranslatedText xml:lang="en">Standardized Substance Name</TranslatedText>
            </Description>
         </ItemDef>
         <ItemDef DataType="text"
                  Length="80"
                  Name="SUCAT"
                  OID="SU.SUCAT"
                  SASFieldName="SUCAT">
            <Description>
               <TranslatedText xml:lang="en">Category for Substance Use</TranslatedText>
            </Description>
         </ItemDef>
         <ItemDef DataType="text"
                  Length="80"
                  Name="SUSCAT"
                  OID="SU.SUSCAT"
                  SASFieldName="SUSCAT">
            <Description>
               <TranslatedText xml:lang="en">Subcategory for Substance Use</TranslatedText>
            </Description>
         </ItemDef>
         <ItemDef DataType="text"
                  Length="2"
                  Name="SUPRESP"
                  OID="SU.SUPRESP"
                  SASFieldName="SUPRESP">
            <Description>
               <TranslatedText xml:lang="en">SU Pre-Specified</TranslatedText>
            </Description>
            <CodeListRef CodeListOID="CL.C66742.NY"/>
         </ItemDef>
         <ItemDef DataType="text"
                  Length="2"
                  Name="SUOCCUR"
                  OID="SU.SUOCCUR"
                  SASFieldName="SUOCCUR">
            <Description>
               <TranslatedText xml:lang="en">SU Occurrence</TranslatedText>
            </Description>
            <CodeListRef CodeListOID="CM4620-203:CL.cNYa"/>
            <def:Origin Type="Collected">
               <def:DocumentRef leafID="LF.aCRF">
                  <def:PDFPageRef PageRefs="20" Type="PhysicalRef"/>
               </def:DocumentRef>
            </def:Origin>
         </ItemDef>
         <ItemDef DataType="text"
                  Length="80"
                  Name="SUSTAT"
                  OID="SU.SUSTAT"
                  SASFieldName="SUSTAT">
            <Description>
               <TranslatedText xml:lang="en">Completion Status</TranslatedText>
            </Description>
            <CodeListRef CodeListOID="CL.C66789.ND"/>
         </ItemDef>
         <ItemDef DataType="text"
                  Length="80"
                  Name="SUREASND"
                  OID="SU.SUREASND"
                  SASFieldName="SUREASND">
            <Description>
               <TranslatedText xml:lang="en">Reason Substance Use Not Collected</TranslatedText>
            </Description>
         </ItemDef>
         <ItemDef DataType="text"
                  Length="80"
                  Name="SUCLAS"
                  OID="SU.SUCLAS"
                  SASFieldName="SUCLAS">
            <Description>
               <TranslatedText xml:lang="en">Substance Use Class</TranslatedText>
            </Description>
         </ItemDef>
         <ItemDef DataType="text"
                  Length="80"
                  Name="SUCLASCD"
                  OID="SU.SUCLASCD"
                  SASFieldName="SUCLASCD">
            <Description>
               <TranslatedText xml:lang="en">Substance Use Class Code</TranslatedText>
            </Description>
         </ItemDef>
         <ItemDef DataType="integer"
                  Length="80"
                  Name="SUDOSE"
                  OID="SU.SUDOSE"
                  SASFieldName="SUDOSE">
            <Description>
               <TranslatedText xml:lang="en">Substance Use Consumption</TranslatedText>
            </Description>
            <def:Origin Type="Collected">
               <def:DocumentRef leafID="LF.aCRF">
                  <def:PDFPageRef PageRefs="20" Type="PhysicalRef"/>
               </def:DocumentRef>
            </def:Origin>
         </ItemDef>
         <ItemDef DataType="text"
                  Length="80"
                  Name="SUDOSTXT"
                  OID="SU.SUDOSTXT"
                  SASFieldName="SUDOSTXT">
            <Description>
               <TranslatedText xml:lang="en">Substance Use Consumption Text</TranslatedText>
            </Description>
         </ItemDef>
         <ItemDef DataType="text"
                  Length="80"
                  Name="SUDOSU"
                  OID="SU.SUDOSU"
                  SASFieldName="SUDOSU">
            <Description>
               <TranslatedText xml:lang="en">Consumption Units</TranslatedText>
            </Description>
            <CodeListRef CodeListOID="CL.C71620.UNIT.SUBSET2"/>
         </ItemDef>
         <ItemDef DataType="text"
                  Length="80"
                  Name="SUDOSFRM"
                  OID="SU.SUDOSFRM"
                  SASFieldName="SUDOSFRM">
            <Description>
               <TranslatedText xml:lang="en">Dose Form</TranslatedText>
            </Description>
         </ItemDef>
         <ItemDef DataType="text"
                  Length="80"
                  Name="SUDOSFRQ"
                  OID="SU.SUDOSFRQ"
                  SASFieldName="SUDOSFRQ">
            <Description>
               <TranslatedText xml:lang="en">Use Frequency Per Interval</TranslatedText>
            </Description>
            <CodeListRef CodeListOID="CL.C71113.FREQ.SUBSET"/>
         </ItemDef>
         <ItemDef DataType="integer"
                  Length="80"
                  Name="SUDOSTOT"
                  OID="SU.SUDOSTOT"
                  SASFieldName="SUDOSTOT">
            <Description>
               <TranslatedText xml:lang="en">Total Daily Consumption</TranslatedText>
            </Description>
         </ItemDef>
         <ItemDef DataType="text"
                  Length="80"
                  Name="SUROUTE"
                  OID="SU.SUROUTE"
                  SASFieldName="SUROUTE">
            <Description>
               <TranslatedText xml:lang="en">Route of Administration</TranslatedText>
            </Description>
            <CodeListRef CodeListOID="CL.C66729.ROUTE"/>
         </ItemDef>
         <ItemDef DataType="integer"
                  Length="8"
                  Name="TAETORD"
                  OID="SU.TAETORD"
                  SASFieldName="TAETORD">
            <Description>
               <TranslatedText xml:lang="en">Planned Order of Element within Arm</TranslatedText>
            </Description>
         </ItemDef>
         <ItemDef DataType="text"
                  Length="80"
                  Name="EPOCH"
                  OID="SU.EPOCH"
                  SASFieldName="EPOCH">
            <Description>
               <TranslatedText xml:lang="en">Epoch</TranslatedText>
            </Description>
            <CodeListRef CodeListOID="CL.C99079.EPOCH"/>
         </ItemDef>
         <ItemDef DataType="datetime"
                  Name="SUSTDTC"
                  OID="SU.SUSTDTC"
                  SASFieldName="SUSTDTC">
            <Description>
               <TranslatedText xml:lang="en">Start Date/Time of Substance Use</TranslatedText>
            </Description>
         </ItemDef>
         <ItemDef DataType="datetime"
                  Name="SUENDTC"
                  OID="SU.SUENDTC"
                  SASFieldName="SUENDTC">
            <Description>
               <TranslatedText xml:lang="en">End Date/Time of Substance Use</TranslatedText>
            </Description>
            <def:Origin Type="Collected">
               <def:DocumentRef leafID="LF.aCRF">
                  <def:PDFPageRef PageRefs="20" Type="PhysicalRef"/>
               </def:DocumentRef>
            </def:Origin>
         </ItemDef>
         <ItemDef DataType="integer"
                  Length="80"
                  Name="SUSTDY"
                  OID="SU.SUSTDY"
                  SASFieldName="SUSTDY">
            <Description>
               <TranslatedText xml:lang="en">Study Day of Start of Substance Use</TranslatedText>
            </Description>
         </ItemDef>
         <ItemDef DataType="integer"
                  Length="80"
                  Name="SUENDY"
                  OID="SU.SUENDY"
                  SASFieldName="SUENDY">
            <Description>
               <TranslatedText xml:lang="en">Study Day of End of Substance Use</TranslatedText>
            </Description>
         </ItemDef>
         <ItemDef DataType="durationDatetime"
                  Name="SUDUR"
                  OID="SU.SUDUR"
                  SASFieldName="SUDUR">
            <Description>
               <TranslatedText xml:lang="en">Duration of Substance Use</TranslatedText>
            </Description>
         </ItemDef>
         <ItemDef DataType="text"
                  Length="80"
                  Name="SUSTRF"
                  OID="SU.SUSTRF"
                  SASFieldName="SUSTRF">
            <Description>
               <TranslatedText xml:lang="en">Start Relative to Reference Period</TranslatedText>
            </Description>
            <CodeListRef CodeListOID="CL.C66728.STENRF"/>
         </ItemDef>
         <ItemDef DataType="text"
                  Length="80"
                  Name="SUENRF"
                  OID="SU.SUENRF"
                  SASFieldName="SUENRF">
            <Description>
               <TranslatedText xml:lang="en">End Relative to Reference Period</TranslatedText>
            </Description>
            <CodeListRef CodeListOID="CL.C66728.STENRF"/>
         </ItemDef>
         <ItemDef DataType="text"
                  Length="80"
                  Name="SUSTRTPT"
                  OID="SU.SUSTRTPT"
                  SASFieldName="SUSTRTPT">
            <Description>
               <TranslatedText xml:lang="en">Start Relative to Reference Time Point</TranslatedText>
            </Description>
            <CodeListRef CodeListOID="CL.C66728.STENRF.FORTPT"/>
         </ItemDef>
         <ItemDef DataType="text"
                  Length="80"
                  Name="SUSTTPT"
                  OID="SU.SUSTTPT"
                  SASFieldName="SUSTTPT">
            <Description>
               <TranslatedText xml:lang="en">Start Reference Time Point</TranslatedText>
            </Description>
         </ItemDef>
         <ItemDef DataType="text"
                  Length="80"
                  Name="SUENRTPT"
                  OID="SU.SUENRTPT"
                  SASFieldName="SUENRTPT">
            <Description>
               <TranslatedText xml:lang="en">End Relative to Reference Time Point</TranslatedText>
            </Description>
            <CodeListRef CodeListOID="CL.C66728.STENRF.FORTPT"/>
         </ItemDef>
         <ItemDef DataType="text"
                  Length="80"
                  Name="SUENTPT"
                  OID="SU.SUENTPT"
                  SASFieldName="SUENTPT">
            <Description>
               <TranslatedText xml:lang="en">End Reference Time Point</TranslatedText>
            </Description>
         </ItemDef>
         <ItemDef DataType="integer"
                  Length="80"
                  Name="AESEQ"
                  OID="AE.AESEQ"
                  SASFieldName="AESEQ">
            <Description>
               <TranslatedText xml:lang="en">Sequence Number</TranslatedText>
            </Description>
            <def:Origin Source="Sponsor" Type="Derived"/>
         </ItemDef>
         <ItemDef DataType="text"
                  Length="80"
                  Name="AEGRPID"
                  OID="AE.AEGRPID"
                  SASFieldName="AEGRPID">
            <Description>
               <TranslatedText xml:lang="en">Group ID</TranslatedText>
            </Description>
         </ItemDef>
         <ItemDef DataType="text"
                  Length="80"
                  Name="AEREFID"
                  OID="AE.AEREFID"
                  SASFieldName="AEREFID">
            <Description>
               <TranslatedText xml:lang="en">Reference ID</TranslatedText>
            </Description>
         </ItemDef>
         <ItemDef DataType="text"
                  Length="1"
                  Name="AESPID"
                  OID="AE.AESPID"
                  SASFieldName="AESPID">
            <Description>
               <TranslatedText xml:lang="en">Sponsor-Defined Identifier</TranslatedText>
            </Description>
            <def:Origin Type="Collected">
               <def:DocumentRef leafID="LF.aCRF">
                  <def:PDFPageRef PageRefs="94" Type="PhysicalRef"/>
               </def:DocumentRef>
            </def:Origin>
         </ItemDef>
         <ItemDef DataType="text"
                  Length="1"
                  Name="AETERM"
                  OID="AE.AETERM"
                  SASFieldName="AETERM">
            <Description>
               <TranslatedText xml:lang="en">Reported Term for the Adverse Event</TranslatedText>
            </Description>
            <def:Origin Type="Collected">
               <def:DocumentRef leafID="LF.aCRF">
                  <def:PDFPageRef PageRefs="94" Type="PhysicalRef"/>
               </def:DocumentRef>
            </def:Origin>
         </ItemDef>
         <ItemDef DataType="text"
                  Length="80"
                  Name="AEMODIFY"
                  OID="AE.AEMODIFY"
                  SASFieldName="AEMODIFY">
            <Description>
               <TranslatedText xml:lang="en">Modified Reported Term</TranslatedText>
            </Description>
         </ItemDef>
         <ItemDef DataType="text"
                  Length="51"
                  Name="AELLT"
                  OID="AE.AELLT"
                  SASFieldName="AELLT">
            <Description>
               <TranslatedText xml:lang="en">Lowest Level Term</TranslatedText>
            </Description>
            <CodeListRef CodeListOID="CL.MEDDRA"/>
         </ItemDef>
         <ItemDef DataType="integer"
                  Length="80"
                  Name="AELLTCD"
                  OID="AE.AELLTCD"
                  SASFieldName="AELLTCD">
            <Description>
               <TranslatedText xml:lang="en">Lowest Level Term Code</TranslatedText>
            </Description>
            <CodeListRef CodeListOID="CL.MEDDRA"/>
         </ItemDef>
         <ItemDef DataType="text"
                  Length="38"
                  Name="AEDECOD"
                  OID="AE.AEDECOD"
                  SASFieldName="AEDECOD">
            <Description>
               <TranslatedText xml:lang="en">Dictionary-Derived Term</TranslatedText>
            </Description>
            <CodeListRef CodeListOID="CL.MEDDRA"/>
         </ItemDef>
         <ItemDef DataType="integer"
                  Length="80"
                  Name="AEPTCD"
                  OID="AE.AEPTCD"
                  SASFieldName="AEPTCD">
            <Description>
               <TranslatedText xml:lang="en">Preferred Term Code</TranslatedText>
            </Description>
            <CodeListRef CodeListOID="CL.MEDDRA"/>
         </ItemDef>
         <ItemDef DataType="text"
                  Length="47"
                  Name="AEHLT"
                  OID="AE.AEHLT"
                  SASFieldName="AEHLT">
            <Description>
               <TranslatedText xml:lang="en">High Level Term</TranslatedText>
            </Description>
            <CodeListRef CodeListOID="CL.MEDDRA"/>
         </ItemDef>
         <ItemDef DataType="integer"
                  Length="80"
                  Name="AEHLTCD"
                  OID="AE.AEHLTCD"
                  SASFieldName="AEHLTCD">
            <Description>
               <TranslatedText xml:lang="en">High Level Term Code</TranslatedText>
            </Description>
            <CodeListRef CodeListOID="CL.MEDDRA"/>
         </ItemDef>
         <ItemDef DataType="text"
                  Length="60"
                  Name="AEHLGT"
                  OID="AE.AEHLGT"
                  SASFieldName="AEHLGT">
            <Description>
               <TranslatedText xml:lang="en">High Level Group Term</TranslatedText>
            </Description>
            <CodeListRef CodeListOID="CL.MEDDRA"/>
         </ItemDef>
         <ItemDef DataType="integer"
                  Length="80"
                  Name="AEHLGTCD"
                  OID="AE.AEHLGTCD"
                  SASFieldName="AEHLGTCD">
            <Description>
               <TranslatedText xml:lang="en">High Level Group Term Code</TranslatedText>
            </Description>
            <CodeListRef CodeListOID="CL.MEDDRA"/>
         </ItemDef>
         <ItemDef DataType="text"
                  Length="14"
                  Name="AECAT"
                  OID="AE.AECAT"
                  SASFieldName="AECAT">
            <Description>
               <TranslatedText xml:lang="en">Category for Adverse Event</TranslatedText>
            </Description>
            <def:Origin Type="Collected">
               <def:DocumentRef leafID="LF.aCRF">
                  <def:PDFPageRef PageRefs="94" Type="PhysicalRef"/>
               </def:DocumentRef>
            </def:Origin>
         </ItemDef>
         <ItemDef DataType="text"
                  Length="80"
                  Name="AESCAT"
                  OID="AE.AESCAT"
                  SASFieldName="AESCAT">
            <Description>
               <TranslatedText xml:lang="en">Subcategory for Adverse Event</TranslatedText>
            </Description>
         </ItemDef>
         <ItemDef DataType="text"
                  Length="2"
                  Name="AEPRESP"
                  OID="AE.AEPRESP"
                  SASFieldName="AEPRESP">
            <Description>
               <TranslatedText xml:lang="en">Pre-Specified Adverse Event</TranslatedText>
            </Description>
            <CodeListRef CodeListOID="CL.C66742.NY"/>
         </ItemDef>
         <ItemDef DataType="text"
                  Length="52"
                  Name="AEBODSYS"
                  OID="AE.AEBODSYS"
                  SASFieldName="AEBODSYS">
            <Description>
               <TranslatedText xml:lang="en">Body System or Organ Class</TranslatedText>
            </Description>
         </ItemDef>
         <ItemDef DataType="text"
                  Length="20"
                  Name="AEBDSYCD"
                  OID="AE.AEBDSYCD"
                  SASFieldName="AEBDSYCD">
            <Description>
               <TranslatedText xml:lang="en">Body System or Organ Class Code</TranslatedText>
            </Description>
            <CodeListRef CodeListOID="CL.MEDDRA"/>
         </ItemDef>
         <ItemDef DataType="text"
                  Length="52"
                  Name="AESOC"
                  OID="AE.AESOC"
                  SASFieldName="AESOC">
            <Description>
               <TranslatedText xml:lang="en">Primary System Organ Class</TranslatedText>
            </Description>
            <CodeListRef CodeListOID="CL.MEDDRA"/>
         </ItemDef>
         <ItemDef DataType="integer"
                  Length="80"
                  Name="AESOCCD"
                  OID="AE.AESOCCD"
                  SASFieldName="AESOCCD">
            <Description>
               <TranslatedText xml:lang="en">Primary System Organ Class Code</TranslatedText>
            </Description>
            <CodeListRef CodeListOID="CL.MEDDRA"/>
         </ItemDef>
         <ItemDef DataType="text"
                  Length="80"
                  Name="AELOC"
                  OID="AE.AELOC"
                  SASFieldName="AELOC">
            <Description>
               <TranslatedText xml:lang="en">Location of Event</TranslatedText>
            </Description>
            <CodeListRef CodeListOID="CL.C74456.LOC"/>
         </ItemDef>
         <ItemDef DataType="text"
                  Length="8"
                  Name="AESEV"
                  OID="AE.AESEV"
                  SASFieldName="AESEV">
            <Description>
               <TranslatedText xml:lang="en">Severity/Intensity</TranslatedText>
            </Description>
            <CodeListRef CodeListOID="CM4620-203:CL.cSEV"/>
         </ItemDef>
         <ItemDef DataType="text"
                  Length="1"
                  Name="AESER"
                  OID="AE.AESER"
                  SASFieldName="AESER">
            <Description>
               <TranslatedText xml:lang="en">Serious Event</TranslatedText>
            </Description>
            <CodeListRef CodeListOID="CM4620-203:CL.cNYa"/>
            <def:Origin Type="Collected">
               <def:DocumentRef leafID="LF.aCRF">
                  <def:PDFPageRef PageRefs="95" Type="PhysicalRef"/>
               </def:DocumentRef>
            </def:Origin>
         </ItemDef>
         <ItemDef DataType="text"
                  Length="24"
                  Name="AEACN"
                  OID="AE.AEACN"
                  SASFieldName="AEACN">
            <Description>
               <TranslatedText xml:lang="en">Action Taken with Study Treatment</TranslatedText>
            </Description>
            <CodeListRef CodeListOID="CM4620-203:CL.cACN"/>
            <def:Origin Type="Collected">
               <def:DocumentRef leafID="LF.aCRF">
                  <def:PDFPageRef PageRefs="95" Type="PhysicalRef"/>
               </def:DocumentRef>
            </def:Origin>
         </ItemDef>
         <ItemDef DataType="text"
                  Length="80"
                  Name="AEACNOTH"
                  OID="AE.AEACNOTH"
                  SASFieldName="AEACNOTH">
            <Description>
               <TranslatedText xml:lang="en">Other Action Taken</TranslatedText>
            </Description>
         </ItemDef>
         <ItemDef DataType="text"
                  Length="9"
                  Name="AEREL"
                  OID="AE.AEREL"
                  SASFieldName="AEREL">
            <Description>
               <TranslatedText xml:lang="en">Causality</TranslatedText>
            </Description>
            <CodeListRef CodeListOID="CM4620-203:CL.cREL"/>
            <def:Origin Type="Collected">
               <def:DocumentRef leafID="LF.aCRF">
                  <def:PDFPageRef PageRefs="95" Type="PhysicalRef"/>
               </def:DocumentRef>
            </def:Origin>
         </ItemDef>
         <ItemDef DataType="text"
                  Length="80"
                  Name="AERELNST"
                  OID="AE.AERELNST"
                  SASFieldName="AERELNST">
            <Description>
               <TranslatedText xml:lang="en">Relationship to Non-Study Treatment</TranslatedText>
            </Description>
         </ItemDef>
         <ItemDef DataType="text"
                  Length="80"
                  Name="AEPATT"
                  OID="AE.AEPATT"
                  SASFieldName="AEPATT">
            <Description>
               <TranslatedText xml:lang="en">Pattern of Adverse Event</TranslatedText>
            </Description>
         </ItemDef>
         <ItemDef DataType="text"
                  Length="23"
                  Name="AEOUT"
                  OID="AE.AEOUT"
                  SASFieldName="AEOUT">
            <Description>
               <TranslatedText xml:lang="en">Outcome of Adverse Event</TranslatedText>
            </Description>
            <CodeListRef CodeListOID="CM4620-203:CL.cOUT"/>
            <def:Origin Type="Collected">
               <def:DocumentRef leafID="LF.aCRF">
                  <def:PDFPageRef PageRefs="95" Type="PhysicalRef"/>
               </def:DocumentRef>
            </def:Origin>
         </ItemDef>
         <ItemDef DataType="text"
                  Length="2"
                  Name="AESCAN"
                  OID="AE.AESCAN"
                  SASFieldName="AESCAN">
            <Description>
               <TranslatedText xml:lang="en">Involves Cancer</TranslatedText>
            </Description>
            <CodeListRef CodeListOID="CL.C66742.NY"/>
         </ItemDef>
         <ItemDef DataType="text"
                  Length="1"
                  Name="AESCONG"
                  OID="AE.AESCONG"
                  SASFieldName="AESCONG">
            <Description>
               <TranslatedText xml:lang="en">Congenital Anomaly or Birth Defect</TranslatedText>
            </Description>
            <CodeListRef CodeListOID="CM4620-203:CL.cNYa"/>
         </ItemDef>
         <ItemDef DataType="text"
                  Length="1"
                  Name="AESDISAB"
                  OID="AE.AESDISAB"
                  SASFieldName="AESDISAB">
            <Description>
               <TranslatedText xml:lang="en">Persist or Signif Disability/Incapacity</TranslatedText>
            </Description>
            <CodeListRef CodeListOID="CM4620-203:CL.cNYa"/>
            <def:Origin Type="Collected">
               <def:DocumentRef leafID="LF.aCRF">
                  <def:PDFPageRef PageRefs="95" Type="PhysicalRef"/>
               </def:DocumentRef>
            </def:Origin>
         </ItemDef>
         <ItemDef DataType="text"
                  Length="1"
                  Name="AESDTH"
                  OID="AE.AESDTH"
                  SASFieldName="AESDTH">
            <Description>
               <TranslatedText xml:lang="en">Results in Death</TranslatedText>
            </Description>
            <CodeListRef CodeListOID="CM4620-203:CL.cNYa"/>
            <def:Origin Type="Collected">
               <def:DocumentRef leafID="LF.aCRF">
                  <def:PDFPageRef PageRefs="95" Type="PhysicalRef"/>
               </def:DocumentRef>
            </def:Origin>
         </ItemDef>
         <ItemDef DataType="text"
                  Length="1"
                  Name="AESHOSP"
                  OID="AE.AESHOSP"
                  SASFieldName="AESHOSP">
            <Description>
               <TranslatedText xml:lang="en">Requires or Prolongs Hospitalization</TranslatedText>
            </Description>
            <CodeListRef CodeListOID="CM4620-203:CL.cNYa"/>
            <def:Origin Type="Collected">
               <def:DocumentRef leafID="LF.aCRF">
                  <def:PDFPageRef PageRefs="95" Type="PhysicalRef"/>
               </def:DocumentRef>
            </def:Origin>
         </ItemDef>
         <ItemDef DataType="text"
                  Length="1"
                  Name="AESLIFE"
                  OID="AE.AESLIFE"
                  SASFieldName="AESLIFE">
            <Description>
               <TranslatedText xml:lang="en">Is Life Threatening</TranslatedText>
            </Description>
            <CodeListRef CodeListOID="CM4620-203:CL.cNYa"/>
            <def:Origin Type="Collected">
               <def:DocumentRef leafID="LF.aCRF">
                  <def:PDFPageRef PageRefs="95" Type="PhysicalRef"/>
               </def:DocumentRef>
            </def:Origin>
         </ItemDef>
         <ItemDef DataType="text"
                  Length="2"
                  Name="AESOD"
                  OID="AE.AESOD"
                  SASFieldName="AESOD">
            <Description>
               <TranslatedText xml:lang="en">Occurred with Overdose</TranslatedText>
            </Description>
            <CodeListRef CodeListOID="CL.C66742.NY"/>
         </ItemDef>
         <ItemDef DataType="text"
                  Length="1"
                  Name="AESMIE"
                  OID="AE.AESMIE"
                  SASFieldName="AESMIE">
            <Description>
               <TranslatedText xml:lang="en">Other Medically Important Serious Event</TranslatedText>
            </Description>
            <CodeListRef CodeListOID="CM4620-203:CL.cNYa"/>
            <def:Origin Type="Collected">
               <def:DocumentRef leafID="LF.aCRF">
                  <def:PDFPageRef PageRefs="96" Type="PhysicalRef"/>
               </def:DocumentRef>
            </def:Origin>
         </ItemDef>
         <ItemDef DataType="text"
                  Length="2"
                  Name="AECONTRT"
                  OID="AE.AECONTRT"
                  SASFieldName="AECONTRT">
            <Description>
               <TranslatedText xml:lang="en">Concomitant or Additional Trtmnt Given</TranslatedText>
            </Description>
            <CodeListRef CodeListOID="CL.C66742.NY"/>
         </ItemDef>
         <ItemDef DataType="text"
                  Length="8"
                  Name="AETOXGR"
                  OID="AE.AETOXGR"
                  SASFieldName="AETOXGR">
            <Description>
               <TranslatedText xml:lang="en">Standard Toxicity Grade</TranslatedText>
            </Description>
         </ItemDef>
         <ItemDef DataType="integer"
                  Length="8"
                  Name="TAETORD"
                  OID="AE.TAETORD"
                  SASFieldName="TAETORD">
            <Description>
               <TranslatedText xml:lang="en">Planned Order of Element within Arm</TranslatedText>
            </Description>
         </ItemDef>
         <ItemDef DataType="text"
                  Length="9"
                  Name="EPOCH"
                  OID="AE.EPOCH"
                  SASFieldName="EPOCH">
            <Description>
               <TranslatedText xml:lang="en">Epoch</TranslatedText>
            </Description>
            <CodeListRef CodeListOID="CL.C99079.EPOCH"/>
         </ItemDef>
         <ItemDef DataType="datetime"
                  Name="AESTDTC"
                  OID="AE.AESTDTC"
                  SASFieldName="AESTDTC">
            <Description>
               <TranslatedText xml:lang="en">Start Date/Time of Adverse Event</TranslatedText>
            </Description>
            <def:Origin Type="Collected">
               <def:DocumentRef leafID="LF.aCRF">
                  <def:PDFPageRef PageRefs="94" Type="PhysicalRef"/>
               </def:DocumentRef>
            </def:Origin>
         </ItemDef>
         <ItemDef DataType="datetime"
                  Name="AEENDTC"
                  OID="AE.AEENDTC"
                  SASFieldName="AEENDTC">
            <Description>
               <TranslatedText xml:lang="en">End Date/Time of Adverse Event</TranslatedText>
            </Description>
            <def:Origin Type="Collected">
               <def:DocumentRef leafID="LF.aCRF">
                  <def:PDFPageRef PageRefs="94" Type="PhysicalRef"/>
               </def:DocumentRef>
            </def:Origin>
         </ItemDef>
         <ItemDef DataType="integer"
                  Length="80"
                  Name="AESTDY"
                  OID="AE.AESTDY"
                  SASFieldName="AESTDY">
            <Description>
               <TranslatedText xml:lang="en">Study Day of Start of Adverse Event</TranslatedText>
            </Description>
         </ItemDef>
         <ItemDef DataType="integer"
                  Length="80"
                  Name="AEENDY"
                  OID="AE.AEENDY"
                  SASFieldName="AEENDY">
            <Description>
               <TranslatedText xml:lang="en">Study Day of End of Adverse Event</TranslatedText>
            </Description>
         </ItemDef>
         <ItemDef DataType="durationDatetime"
                  Name="AEDUR"
                  OID="AE.AEDUR"
                  SASFieldName="AEDUR">
            <Description>
               <TranslatedText xml:lang="en">Duration of Adverse Event</TranslatedText>
            </Description>
         </ItemDef>
         <ItemDef DataType="text"
                  Length="80"
                  Name="AEENRF"
                  OID="AE.AEENRF"
                  SASFieldName="AEENRF">
            <Description>
               <TranslatedText xml:lang="en">End Relative to Reference Period</TranslatedText>
            </Description>
            <CodeListRef CodeListOID="CL.C66728.STENRF"/>
         </ItemDef>
         <ItemDef DataType="text"
                  Length="80"
                  Name="AEENRTPT"
                  OID="AE.AEENRTPT"
                  SASFieldName="AEENRTPT">
            <Description>
               <TranslatedText xml:lang="en">End Relative to Reference Time Point</TranslatedText>
            </Description>
            <CodeListRef CodeListOID="CL.C66728.STENRF.FORTPT"/>
            <def:Origin Type="Collected">
               <def:DocumentRef leafID="LF.aCRF">
                  <def:PDFPageRef PageRefs="94" Type="PhysicalRef"/>
               </def:DocumentRef>
            </def:Origin>
         </ItemDef>
         <ItemDef DataType="text"
                  Length="80"
                  Name="AEENTPT"
                  OID="AE.AEENTPT"
                  SASFieldName="AEENTPT">
            <Description>
               <TranslatedText xml:lang="en">End Reference Time Point</TranslatedText>
            </Description>
            <def:Origin Source="Vendor" Type="Assigned"/>
         </ItemDef>
         <ItemDef DataType="integer"
                  Length="80"
                  Name="CESEQ"
                  OID="CE.CESEQ"
                  SASFieldName="CESEQ">
            <Description>
               <TranslatedText xml:lang="en">Sequence Number</TranslatedText>
            </Description>
            <def:Origin Source="Sponsor" Type="Derived"/>
         </ItemDef>
         <ItemDef DataType="text"
                  Length="80"
                  Name="CEGRPID"
                  OID="CE.CEGRPID"
                  SASFieldName="CEGRPID">
            <Description>
               <TranslatedText xml:lang="en">Group ID</TranslatedText>
            </Description>
         </ItemDef>
         <ItemDef DataType="text"
                  Length="80"
                  Name="CEREFID"
                  OID="CE.CEREFID"
                  SASFieldName="CEREFID">
            <Description>
               <TranslatedText xml:lang="en">Reference ID</TranslatedText>
            </Description>
         </ItemDef>
         <ItemDef DataType="text"
                  Length="80"
                  Name="CESPID"
                  OID="CE.CESPID"
                  SASFieldName="CESPID">
            <Description>
               <TranslatedText xml:lang="en">Sponsor-Defined Identifier</TranslatedText>
            </Description>
         </ItemDef>
         <ItemDef DataType="text"
                  Length="80"
                  Name="CETERM"
                  OID="CE.CETERM"
                  SASFieldName="CETERM">
            <Description>
               <TranslatedText xml:lang="en">Reported Term for the Clinical Event</TranslatedText>
            </Description>
            <def:Origin Type="Collected">
               <def:DocumentRef leafID="LF.aCRF">
                  <def:PDFPageRef PageRefs="90 91 92" Type="PhysicalRef"/>
               </def:DocumentRef>
            </def:Origin>
         </ItemDef>
         <ItemDef DataType="text"
                  Length="80"
                  Name="CEDECOD"
                  OID="CE.CEDECOD"
                  SASFieldName="CEDECOD">
            <Description>
               <TranslatedText xml:lang="en">Dictionary-Derived Term</TranslatedText>
            </Description>
         </ItemDef>
         <ItemDef DataType="text"
                  Length="80"
                  Name="CECAT"
                  OID="CE.CECAT"
                  SASFieldName="CECAT">
            <Description>
               <TranslatedText xml:lang="en">Category for the Clinical Event</TranslatedText>
            </Description>
         </ItemDef>
         <ItemDef DataType="text"
                  Length="80"
                  Name="CESCAT"
                  OID="CE.CESCAT"
                  SASFieldName="CESCAT">
            <Description>
               <TranslatedText xml:lang="en">Subcategory for the Clinical Event</TranslatedText>
            </Description>
         </ItemDef>
         <ItemDef DataType="text"
                  Length="2"
                  Name="CEPRESP"
                  OID="CE.CEPRESP"
                  SASFieldName="CEPRESP">
            <Description>
               <TranslatedText xml:lang="en">Clinical Event Pre-specified</TranslatedText>
            </Description>
            <CodeListRef CodeListOID="CL.C66742.NY"/>
         </ItemDef>
         <ItemDef DataType="text"
                  Length="2"
                  Name="CEOCCUR"
                  OID="CE.CEOCCUR"
                  SASFieldName="CEOCCUR">
            <Description>
               <TranslatedText xml:lang="en">Clinical Event Occurrence</TranslatedText>
            </Description>
            <CodeListRef CodeListOID="CM4620-203:CL.cNYa"/>
         </ItemDef>
         <ItemDef DataType="text"
                  Length="80"
                  Name="CESTAT"
                  OID="CE.CESTAT"
                  SASFieldName="CESTAT">
            <Description>
               <TranslatedText xml:lang="en">Completion Status</TranslatedText>
            </Description>
            <CodeListRef CodeListOID="CL.C66789.ND"/>
         </ItemDef>
         <ItemDef DataType="text"
                  Length="80"
                  Name="CEREASND"
                  OID="CE.CEREASND"
                  SASFieldName="CEREASND">
            <Description>
               <TranslatedText xml:lang="en">Reason Clinical Event Not Collected</TranslatedText>
            </Description>
         </ItemDef>
         <ItemDef DataType="text"
                  Length="80"
                  Name="CEBODSYS"
                  OID="CE.CEBODSYS"
                  SASFieldName="CEBODSYS">
            <Description>
               <TranslatedText xml:lang="en">Body System or Organ Class</TranslatedText>
            </Description>
         </ItemDef>
         <ItemDef DataType="text"
                  Length="80"
                  Name="CESEV"
                  OID="CE.CESEV"
                  SASFieldName="CESEV">
            <Description>
               <TranslatedText xml:lang="en">Severity/Intensity</TranslatedText>
            </Description>
         </ItemDef>
         <ItemDef DataType="integer"
                  Length="8"
                  Name="TAETORD"
                  OID="CE.TAETORD"
                  SASFieldName="TAETORD">
            <Description>
               <TranslatedText xml:lang="en">Planned Order of Element within Arm</TranslatedText>
            </Description>
         </ItemDef>
         <ItemDef DataType="text"
                  Length="80"
                  Name="EPOCH"
                  OID="CE.EPOCH"
                  SASFieldName="EPOCH">
            <Description>
               <TranslatedText xml:lang="en">Epoch</TranslatedText>
            </Description>
            <CodeListRef CodeListOID="CL.C99079.EPOCH"/>
         </ItemDef>
         <ItemDef DataType="datetime"
                  Name="CEDTC"
                  OID="CE.CEDTC"
                  SASFieldName="CEDTC">
            <Description>
               <TranslatedText xml:lang="en">Date/Time of Event Collection</TranslatedText>
            </Description>
         </ItemDef>
         <ItemDef DataType="datetime"
                  Name="CESTDTC"
                  OID="CE.CESTDTC"
                  SASFieldName="CESTDTC">
            <Description>
               <TranslatedText xml:lang="en">Start Date/Time of Clinical Event</TranslatedText>
            </Description>
         </ItemDef>
         <ItemDef DataType="datetime"
                  Name="CEENDTC"
                  OID="CE.CEENDTC"
                  SASFieldName="CEENDTC">
            <Description>
               <TranslatedText xml:lang="en">End Date/Time of Clinical Event</TranslatedText>
            </Description>
         </ItemDef>
         <ItemDef DataType="integer"
                  Length="80"
                  Name="CEDY"
                  OID="CE.CEDY"
                  SASFieldName="CEDY">
            <Description>
               <TranslatedText xml:lang="en">Study Day of Event Collection</TranslatedText>
            </Description>
         </ItemDef>
         <ItemDef DataType="integer"
                  Length="80"
                  Name="CESTDY"
                  OID="CE.CESTDY"
                  SASFieldName="CESTDY">
            <Description>
               <TranslatedText xml:lang="en">Study Day of Start of Event</TranslatedText>
            </Description>
         </ItemDef>
         <ItemDef DataType="integer"
                  Length="80"
                  Name="CEENDY"
                  OID="CE.CEENDY"
                  SASFieldName="CEENDY">
            <Description>
               <TranslatedText xml:lang="en">Study Day of End of Event</TranslatedText>
            </Description>
         </ItemDef>
         <ItemDef DataType="text"
                  Length="80"
                  Name="CESTRF"
                  OID="CE.CESTRF"
                  SASFieldName="CESTRF">
            <Description>
               <TranslatedText xml:lang="en">Start Relative to Reference Period</TranslatedText>
            </Description>
            <CodeListRef CodeListOID="CL.C66728.STENRF"/>
         </ItemDef>
         <ItemDef DataType="text"
                  Length="80"
                  Name="CEENRF"
                  OID="CE.CEENRF"
                  SASFieldName="CEENRF">
            <Description>
               <TranslatedText xml:lang="en">End Relative to Reference Period</TranslatedText>
            </Description>
            <CodeListRef CodeListOID="CL.C66728.STENRF"/>
         </ItemDef>
         <ItemDef DataType="text"
                  Length="80"
                  Name="CESTRTPT"
                  OID="CE.CESTRTPT"
                  SASFieldName="CESTRTPT">
            <Description>
               <TranslatedText xml:lang="en">Start Relative to Reference Time Point</TranslatedText>
            </Description>
            <CodeListRef CodeListOID="CL.C66728.STENRF.FORTPT"/>
         </ItemDef>
         <ItemDef DataType="text"
                  Length="80"
                  Name="CESTTPT"
                  OID="CE.CESTTPT"
                  SASFieldName="CESTTPT">
            <Description>
               <TranslatedText xml:lang="en">Start Reference Time Point</TranslatedText>
            </Description>
         </ItemDef>
         <ItemDef DataType="text"
                  Length="80"
                  Name="CEENRTPT"
                  OID="CE.CEENRTPT"
                  SASFieldName="CEENRTPT">
            <Description>
               <TranslatedText xml:lang="en">End Relative to Reference Time Point</TranslatedText>
            </Description>
            <CodeListRef CodeListOID="CL.C66728.STENRF.FORTPT"/>
         </ItemDef>
         <ItemDef DataType="text"
                  Length="80"
                  Name="CEENTPT"
                  OID="CE.CEENTPT"
                  SASFieldName="CEENTPT">
            <Description>
               <TranslatedText xml:lang="en">End Reference Time Point</TranslatedText>
            </Description>
         </ItemDef>
         <ItemDef DataType="integer"
                  Length="80"
                  Name="DSSEQ"
                  OID="DS.DSSEQ"
                  SASFieldName="DSSEQ">
            <Description>
               <TranslatedText xml:lang="en">Sequence Number</TranslatedText>
            </Description>
            <def:Origin Source="Sponsor" Type="Derived"/>
         </ItemDef>
         <ItemDef DataType="text"
                  Length="80"
                  Name="DSGRPID"
                  OID="DS.DSGRPID"
                  SASFieldName="DSGRPID">
            <Description>
               <TranslatedText xml:lang="en">Group ID</TranslatedText>
            </Description>
         </ItemDef>
         <ItemDef DataType="text"
                  Length="80"
                  Name="DSREFID"
                  OID="DS.DSREFID"
                  SASFieldName="DSREFID">
            <Description>
               <TranslatedText xml:lang="en">Reference ID</TranslatedText>
            </Description>
         </ItemDef>
         <ItemDef DataType="text"
                  Length="80"
                  Name="DSSPID"
                  OID="DS.DSSPID"
                  SASFieldName="DSSPID">
            <Description>
               <TranslatedText xml:lang="en">Sponsor-Defined Identifier</TranslatedText>
            </Description>
         </ItemDef>
         <ItemDef DataType="text"
                  Length="80"
                  Name="DSTERM"
                  OID="DS.DSTERM"
                  SASFieldName="DSTERM">
            <Description>
               <TranslatedText xml:lang="en">Reported Term for the Disposition Event</TranslatedText>
            </Description>
            <def:Origin Source="Investigator" Type="Collected">
               <def:DocumentRef leafID="LF.aCRF">
                  <def:PDFPageRef PageRefs="2 4 64 69 82 83 84" Type="PhysicalRef"/>
               </def:DocumentRef>
            </def:Origin>
         </ItemDef>
         <ItemDef DataType="text"
                  Length="80"
                  Name="DSDECOD"
                  OID="DS.DSDECOD"
                  SASFieldName="DSDECOD">
            <Description>
               <TranslatedText xml:lang="en">Standardized Disposition Term</TranslatedText>
            </Description>
            <def:Origin Type="Collected">
               <def:DocumentRef leafID="LF.aCRF">
                  <def:PDFPageRef PageRefs="2 4 64 69 82 83 84" Type="PhysicalRef"/>
               </def:DocumentRef>
            </def:Origin>
         </ItemDef>
         <ItemDef DataType="text"
                  Length="80"
                  Name="DSCAT"
                  OID="DS.DSCAT"
                  SASFieldName="DSCAT">
            <Description>
               <TranslatedText xml:lang="en">Category for Disposition Event</TranslatedText>
            </Description>
            <CodeListRef CodeListOID="CL.C74558.DSCAT"/>
         </ItemDef>
         <ItemDef DataType="text"
                  Length="80"
                  Name="DSSCAT"
                  OID="DS.DSSCAT"
                  SASFieldName="DSSCAT">
            <Description>
               <TranslatedText xml:lang="en">Subcategory for Disposition Event</TranslatedText>
            </Description>
         </ItemDef>
         <ItemDef DataType="text"
                  Length="80"
                  Name="EPOCH"
                  OID="DS.EPOCH"
                  SASFieldName="EPOCH">
            <Description>
               <TranslatedText xml:lang="en">Epoch</TranslatedText>
            </Description>
            <CodeListRef CodeListOID="CL.C99079.EPOCH"/>
         </ItemDef>
         <ItemDef DataType="datetime"
                  Name="DSDTC"
                  OID="DS.DSDTC"
                  SASFieldName="DSDTC">
            <Description>
               <TranslatedText xml:lang="en">Date/Time of Collection</TranslatedText>
            </Description>
         </ItemDef>
         <ItemDef DataType="datetime"
                  Name="DSSTDTC"
                  OID="DS.DSSTDTC"
                  SASFieldName="DSSTDTC">
            <Description>
               <TranslatedText xml:lang="en">Start Date/Time of Disposition Event</TranslatedText>
            </Description>
            <def:Origin Type="Collected">
               <def:DocumentRef leafID="LF.aCRF">
                  <def:PDFPageRef PageRefs="2 64 83 84" Type="PhysicalRef"/>
               </def:DocumentRef>
            </def:Origin>
         </ItemDef>
         <ItemDef DataType="integer"
                  Length="80"
                  Name="DSDY"
                  OID="DS.DSDY"
                  SASFieldName="DSDY">
            <Description>
               <TranslatedText xml:lang="en">Study Day of Collection</TranslatedText>
            </Description>
         </ItemDef>
         <ItemDef DataType="integer"
                  Length="80"
                  Name="DSSTDY"
                  OID="DS.DSSTDY"
                  SASFieldName="DSSTDY">
            <Description>
               <TranslatedText xml:lang="en">Study Day of Start of Disposition Event</TranslatedText>
            </Description>
         </ItemDef>
         <ItemDef DataType="integer"
                  Length="80"
                  Name="DVSEQ"
                  OID="DV.DVSEQ"
                  SASFieldName="DVSEQ">
            <Description>
               <TranslatedText xml:lang="en">Sequence Number</TranslatedText>
            </Description>
         </ItemDef>
         <ItemDef DataType="text"
                  Length="80"
                  Name="DVREFID"
                  OID="DV.DVREFID"
                  SASFieldName="DVREFID">
            <Description>
               <TranslatedText xml:lang="en">Reference ID</TranslatedText>
            </Description>
         </ItemDef>
         <ItemDef DataType="text"
                  Length="80"
                  Name="DVSPID"
                  OID="DV.DVSPID"
                  SASFieldName="DVSPID">
            <Description>
               <TranslatedText xml:lang="en">Sponsor-Defined Identifier</TranslatedText>
            </Description>
         </ItemDef>
         <ItemDef DataType="text"
                  Length="80"
                  Name="DVTERM"
                  OID="DV.DVTERM"
                  SASFieldName="DVTERM">
            <Description>
               <TranslatedText xml:lang="en">Protocol Deviation Term</TranslatedText>
            </Description>
         </ItemDef>
         <ItemDef DataType="text"
                  Length="80"
                  Name="DVDECOD"
                  OID="DV.DVDECOD"
                  SASFieldName="DVDECOD">
            <Description>
               <TranslatedText xml:lang="en">Protocol Deviation Coded Term</TranslatedText>
            </Description>
         </ItemDef>
         <ItemDef DataType="text"
                  Length="80"
                  Name="DVCAT"
                  OID="DV.DVCAT"
                  SASFieldName="DVCAT">
            <Description>
               <TranslatedText xml:lang="en">Category for Protocol Deviation</TranslatedText>
            </Description>
         </ItemDef>
         <ItemDef DataType="text"
                  Length="80"
                  Name="DVSCAT"
                  OID="DV.DVSCAT"
                  SASFieldName="DVSCAT">
            <Description>
               <TranslatedText xml:lang="en">Subcategory for Protocol Deviation</TranslatedText>
            </Description>
         </ItemDef>
         <ItemDef DataType="integer"
                  Length="8"
                  Name="TAETORD"
                  OID="DV.TAETORD"
                  SASFieldName="TAETORD">
            <Description>
               <TranslatedText xml:lang="en">Planned Order of Element within Arm</TranslatedText>
            </Description>
         </ItemDef>
         <ItemDef DataType="text"
                  Length="80"
                  Name="EPOCH"
                  OID="DV.EPOCH"
                  SASFieldName="EPOCH">
            <Description>
               <TranslatedText xml:lang="en">Epoch</TranslatedText>
            </Description>
            <CodeListRef CodeListOID="CL.C99079.EPOCH"/>
         </ItemDef>
         <ItemDef DataType="datetime"
                  Name="DVSTDTC"
                  OID="DV.DVSTDTC"
                  SASFieldName="DVSTDTC">
            <Description>
               <TranslatedText xml:lang="en">Start Date/Time of Deviation</TranslatedText>
            </Description>
         </ItemDef>
         <ItemDef DataType="datetime"
                  Name="DVENDTC"
                  OID="DV.DVENDTC"
                  SASFieldName="DVENDTC">
            <Description>
               <TranslatedText xml:lang="en">End Date/Time of Deviation</TranslatedText>
            </Description>
         </ItemDef>
         <ItemDef DataType="integer"
                  Length="80"
                  Name="DVSTDY"
                  OID="DV.DVSTDY"
                  SASFieldName="DVSTDY">
            <Description>
               <TranslatedText xml:lang="en">Study Day of Start of Deviation Event</TranslatedText>
            </Description>
         </ItemDef>
         <ItemDef DataType="integer"
                  Length="80"
                  Name="DVENDY"
                  OID="DV.DVENDY"
                  SASFieldName="DVENDY">
            <Description>
               <TranslatedText xml:lang="en">Study Day of End of Observation</TranslatedText>
            </Description>
         </ItemDef>
         <ItemDef DataType="integer"
                  Length="80"
                  Name="HOSEQ"
                  OID="HO.HOSEQ"
                  SASFieldName="HOSEQ">
            <Description>
               <TranslatedText xml:lang="en">Sequence Number</TranslatedText>
            </Description>
            <def:Origin Source="Sponsor" Type="Derived"/>
         </ItemDef>
         <ItemDef DataType="text"
                  Length="80"
                  Name="HOGRPID"
                  OID="HO.HOGRPID"
                  SASFieldName="HOGRPID">
            <Description>
               <TranslatedText xml:lang="en">Group ID</TranslatedText>
            </Description>
         </ItemDef>
         <ItemDef DataType="text"
                  Length="80"
                  Name="HOREFID"
                  OID="HO.HOREFID"
                  SASFieldName="HOREFID">
            <Description>
               <TranslatedText xml:lang="en">Reference ID</TranslatedText>
            </Description>
         </ItemDef>
         <ItemDef DataType="text"
                  Length="80"
                  Name="HOSPID"
                  OID="HO.HOSPID"
                  SASFieldName="HOSPID">
            <Description>
               <TranslatedText xml:lang="en">Sponsor-Defined Identifier</TranslatedText>
            </Description>
         </ItemDef>
         <ItemDef DataType="text"
                  Length="80"
                  Name="HOTERM"
                  OID="HO.HOTERM"
                  SASFieldName="HOTERM">
            <Description>
               <TranslatedText xml:lang="en">Healthcare Encounter Term</TranslatedText>
            </Description>
            <def:Origin Source="Vendor" Type="Assigned"/>
         </ItemDef>
         <ItemDef DataType="text"
                  Length="80"
                  Name="HODECOD"
                  OID="HO.HODECOD"
                  SASFieldName="HODECOD">
            <Description>
               <TranslatedText xml:lang="en">Dictionary-Derived Term</TranslatedText>
            </Description>
         </ItemDef>
         <ItemDef DataType="text"
                  Length="80"
                  Name="HOCAT"
                  OID="HO.HOCAT"
                  SASFieldName="HOCAT">
            <Description>
               <TranslatedText xml:lang="en">Category for Healthcare Encounter</TranslatedText>
            </Description>
            <def:Origin Type="Collected">
               <def:DocumentRef leafID="LF.aCRF">
                  <def:PDFPageRef PageRefs="21 84 114 115" Type="PhysicalRef"/>
               </def:DocumentRef>
            </def:Origin>
         </ItemDef>
         <ItemDef DataType="text"
                  Length="80"
                  Name="HOSCAT"
                  OID="HO.HOSCAT"
                  SASFieldName="HOSCAT">
            <Description>
               <TranslatedText xml:lang="en">Subcategory for Healthcare Encounter</TranslatedText>
            </Description>
         </ItemDef>
         <ItemDef DataType="text"
                  Length="2"
                  Name="HOPRESP"
                  OID="HO.HOPRESP"
                  SASFieldName="HOPRESP">
            <Description>
               <TranslatedText xml:lang="en">Pre-Specified Healthcare Encounter</TranslatedText>
            </Description>
            <CodeListRef CodeListOID="CL.C66742.NY"/>
         </ItemDef>
         <ItemDef DataType="text"
                  Length="2"
                  Name="HOOCCUR"
                  OID="HO.HOOCCUR"
                  SASFieldName="HOOCCUR">
            <Description>
               <TranslatedText xml:lang="en">Healthcare Encounter Occurrence</TranslatedText>
            </Description>
            <CodeListRef CodeListOID="CL.C66742.NY"/>
         </ItemDef>
         <ItemDef DataType="text"
                  Length="80"
                  Name="HOSTAT"
                  OID="HO.HOSTAT"
                  SASFieldName="HOSTAT">
            <Description>
               <TranslatedText xml:lang="en">Completion Status</TranslatedText>
            </Description>
            <CodeListRef CodeListOID="CL.C66789.ND"/>
         </ItemDef>
         <ItemDef DataType="text"
                  Length="80"
                  Name="HOREASND"
                  OID="HO.HOREASND"
                  SASFieldName="HOREASND">
            <Description>
               <TranslatedText xml:lang="en">Reason Healthcare Encounter Not Done</TranslatedText>
            </Description>
         </ItemDef>
         <ItemDef DataType="integer"
                  Length="8"
                  Name="TAETORD"
                  OID="HO.TAETORD"
                  SASFieldName="TAETORD">
            <Description>
               <TranslatedText xml:lang="en">Planned Order of Element within Arm</TranslatedText>
            </Description>
         </ItemDef>
         <ItemDef DataType="text"
                  Length="80"
                  Name="EPOCH"
                  OID="HO.EPOCH"
                  SASFieldName="EPOCH">
            <Description>
               <TranslatedText xml:lang="en">Epoch</TranslatedText>
            </Description>
            <CodeListRef CodeListOID="CL.C99079.EPOCH"/>
         </ItemDef>
         <ItemDef DataType="datetime"
                  Name="HODTC"
                  OID="HO.HODTC"
                  SASFieldName="HODTC">
            <Description>
               <TranslatedText xml:lang="en">Date/Time of Event Collection</TranslatedText>
            </Description>
            <def:Origin Type="Collected">
               <def:DocumentRef leafID="LF.aCRF">
                  <def:PDFPageRef PageRefs="21" Type="PhysicalRef"/>
               </def:DocumentRef>
            </def:Origin>
         </ItemDef>
         <ItemDef DataType="datetime"
                  Name="HOSTDTC"
                  OID="HO.HOSTDTC"
                  SASFieldName="HOSTDTC">
            <Description>
               <TranslatedText xml:lang="en">Start Date/Time of Healthcare Encounter</TranslatedText>
            </Description>
            <def:Origin Type="Collected">
               <def:DocumentRef leafID="LF.aCRF">
                  <def:PDFPageRef PageRefs="21 84 114 115" Type="PhysicalRef"/>
               </def:DocumentRef>
            </def:Origin>
         </ItemDef>
         <ItemDef DataType="datetime"
                  Name="HOENDTC"
                  OID="HO.HOENDTC"
                  SASFieldName="HOENDTC">
            <Description>
               <TranslatedText xml:lang="en">End Date/Time of Healthcare Encounter</TranslatedText>
            </Description>
         </ItemDef>
         <ItemDef DataType="integer"
                  Length="80"
                  Name="HODY"
                  OID="HO.HODY"
                  SASFieldName="HODY">
            <Description>
               <TranslatedText xml:lang="en">Study Day of Event Collection</TranslatedText>
            </Description>
         </ItemDef>
         <ItemDef DataType="integer"
                  Length="80"
                  Name="HOSTDY"
                  OID="HO.HOSTDY"
                  SASFieldName="HOSTDY">
            <Description>
               <TranslatedText xml:lang="en">Study Day of Start of Encounter</TranslatedText>
            </Description>
         </ItemDef>
         <ItemDef DataType="integer"
                  Length="80"
                  Name="HOENDY"
                  OID="HO.HOENDY"
                  SASFieldName="HOENDY">
            <Description>
               <TranslatedText xml:lang="en">Study Day of End of Healthcare Encounter</TranslatedText>
            </Description>
         </ItemDef>
         <ItemDef DataType="durationDatetime"
                  Name="HODUR"
                  OID="HO.HODUR"
                  SASFieldName="HODUR">
            <Description>
               <TranslatedText xml:lang="en">Duration of Healthcare Encounter</TranslatedText>
            </Description>
         </ItemDef>
         <ItemDef DataType="text"
                  Length="80"
                  Name="HOSTRTPT"
                  OID="HO.HOSTRTPT"
                  SASFieldName="HOSTRTPT">
            <Description>
               <TranslatedText xml:lang="en">Start Relative to Reference Time Point</TranslatedText>
            </Description>
            <CodeListRef CodeListOID="CL.C66728.STENRF.FORTPT"/>
         </ItemDef>
         <ItemDef DataType="text"
                  Length="80"
                  Name="HOSTTPT"
                  OID="HO.HOSTTPT"
                  SASFieldName="HOSTTPT">
            <Description>
               <TranslatedText xml:lang="en">Start Reference Time Point</TranslatedText>
            </Description>
         </ItemDef>
         <ItemDef DataType="text"
                  Length="80"
                  Name="HOENRTPT"
                  OID="HO.HOENRTPT"
                  SASFieldName="HOENRTPT">
            <Description>
               <TranslatedText xml:lang="en">End Relative to Reference Time Point</TranslatedText>
            </Description>
            <CodeListRef CodeListOID="CL.C66728.STENRF.FORTPT"/>
         </ItemDef>
         <ItemDef DataType="text"
                  Length="80"
                  Name="HOENTPT"
                  OID="HO.HOENTPT"
                  SASFieldName="HOENTPT">
            <Description>
               <TranslatedText xml:lang="en">End Reference Time Point</TranslatedText>
            </Description>
         </ItemDef>
         <ItemDef DataType="integer"
                  Length="80"
                  Name="MHSEQ"
                  OID="MH.MHSEQ"
                  SASFieldName="MHSEQ">
            <Description>
               <TranslatedText xml:lang="en">Sequence Number</TranslatedText>
            </Description>
            <def:Origin Source="Sponsor" Type="Derived"/>
         </ItemDef>
         <ItemDef DataType="text"
                  Length="80"
                  Name="MHGRPID"
                  OID="MH.MHGRPID"
                  SASFieldName="MHGRPID">
            <Description>
               <TranslatedText xml:lang="en">Group ID</TranslatedText>
            </Description>
         </ItemDef>
         <ItemDef DataType="text"
                  Length="80"
                  Name="MHREFID"
                  OID="MH.MHREFID"
                  SASFieldName="MHREFID">
            <Description>
               <TranslatedText xml:lang="en">Reference ID</TranslatedText>
            </Description>
         </ItemDef>
         <ItemDef DataType="text"
                  Length="80"
                  Name="MHSPID"
                  OID="MH.MHSPID"
                  SASFieldName="MHSPID">
            <Description>
               <TranslatedText xml:lang="en">Sponsor-Defined Identifier</TranslatedText>
            </Description>
         </ItemDef>
         <ItemDef DataType="text"
                  Length="80"
                  Name="MHTERM"
                  OID="MH.MHTERM"
                  SASFieldName="MHTERM">
            <Description>
               <TranslatedText xml:lang="en">Reported Term for the Medical History</TranslatedText>
            </Description>
            <def:Origin Type="Collected">
               <def:DocumentRef leafID="LF.aCRF">
                  <def:PDFPageRef PageRefs="8 9 10 11" Type="PhysicalRef"/>
               </def:DocumentRef>
            </def:Origin>
         </ItemDef>
         <ItemDef DataType="text"
                  Length="80"
                  Name="MHMODIFY"
                  OID="MH.MHMODIFY"
                  SASFieldName="MHMODIFY">
            <Description>
               <TranslatedText xml:lang="en">Modified Reported Term</TranslatedText>
            </Description>
         </ItemDef>
         <ItemDef DataType="text"
                  Length="80"
                  Name="MHDECOD"
                  OID="MH.MHDECOD"
                  SASFieldName="MHDECOD">
            <Description>
               <TranslatedText xml:lang="en">Dictionary-Derived Term</TranslatedText>
            </Description>
         </ItemDef>
         <ItemDef DataType="text"
                  Length="80"
                  Name="MHEVDTYP"
                  OID="MH.MHEVDTYP"
                  SASFieldName="MHEVDTYP">
            <Description>
               <TranslatedText xml:lang="en">Medical History Event Date Type</TranslatedText>
            </Description>
            <CodeListRef CodeListOID="CL.C124301.MHEDTTYP"/>
         </ItemDef>
         <ItemDef DataType="text"
                  Length="80"
                  Name="MHCAT"
                  OID="MH.MHCAT"
                  SASFieldName="MHCAT">
            <Description>
               <TranslatedText xml:lang="en">Category for Medical History</TranslatedText>
            </Description>
         </ItemDef>
         <ItemDef DataType="text"
                  Length="80"
                  Name="MHSCAT"
                  OID="MH.MHSCAT"
                  SASFieldName="MHSCAT">
            <Description>
               <TranslatedText xml:lang="en">Subcategory for Medical History</TranslatedText>
            </Description>
            <def:Origin Type="Collected">
               <def:DocumentRef leafID="LF.aCRF">
                  <def:PDFPageRef PageRefs="8 9 10 11" Type="PhysicalRef"/>
               </def:DocumentRef>
            </def:Origin>
         </ItemDef>
         <ItemDef DataType="text"
                  Length="2"
                  Name="MHPRESP"
                  OID="MH.MHPRESP"
                  SASFieldName="MHPRESP">
            <Description>
               <TranslatedText xml:lang="en">Medical History Event Pre-Specified</TranslatedText>
            </Description>
            <CodeListRef CodeListOID="CL.C66742.NY"/>
         </ItemDef>
         <ItemDef DataType="text"
                  Length="2"
                  Name="MHOCCUR"
                  OID="MH.MHOCCUR"
                  SASFieldName="MHOCCUR">
            <Description>
               <TranslatedText xml:lang="en">Medical History Occurrence</TranslatedText>
            </Description>
            <CodeListRef CodeListOID="CM4620-203:CL.cNYa"/>
            <def:Origin Type="Collected">
               <def:DocumentRef leafID="LF.aCRF">
                  <def:PDFPageRef PageRefs="8 9 10 11 13" Type="PhysicalRef"/>
               </def:DocumentRef>
            </def:Origin>
         </ItemDef>
         <ItemDef DataType="text"
                  Length="80"
                  Name="MHSTAT"
                  OID="MH.MHSTAT"
                  SASFieldName="MHSTAT">
            <Description>
               <TranslatedText xml:lang="en">Completion Status</TranslatedText>
            </Description>
            <CodeListRef CodeListOID="CL.C66789.ND"/>
         </ItemDef>
         <ItemDef DataType="text"
                  Length="80"
                  Name="MHREASND"
                  OID="MH.MHREASND"
                  SASFieldName="MHREASND">
            <Description>
               <TranslatedText xml:lang="en">Reason Medical History Not Collected</TranslatedText>
            </Description>
         </ItemDef>
         <ItemDef DataType="text"
                  Length="80"
                  Name="MHBODSYS"
                  OID="MH.MHBODSYS"
                  SASFieldName="MHBODSYS">
            <Description>
               <TranslatedText xml:lang="en">Body System or Organ Class</TranslatedText>
            </Description>
         </ItemDef>
         <ItemDef DataType="integer"
                  Length="8"
                  Name="TAETORD"
                  OID="MH.TAETORD"
                  SASFieldName="TAETORD">
            <Description>
               <TranslatedText xml:lang="en">Planned Order of Element within Arm</TranslatedText>
            </Description>
         </ItemDef>
         <ItemDef DataType="text"
                  Length="80"
                  Name="EPOCH"
                  OID="MH.EPOCH"
                  SASFieldName="EPOCH">
            <Description>
               <TranslatedText xml:lang="en">Epoch</TranslatedText>
            </Description>
